sub_id,trial_type,prop_trials_chose_alc,prop_trials_chose_cig,prop_trials_chose_neu,neu_avg_looking_time,neu_avg_prop_time,cig_avg_looking_time,cig_avg_prop_time,alc_avg_looking_time,alc_avg_prop_time,avg_rt,chose_alc_neu_avg_looking_time,chose_alc_neu_avg_prop_time,chose_alc_cig_avg_looking_time,chose_alc_cig_avg_prop_time,chose_alc_alc_avg_looking_time,chose_alc_alc_avg_prop_time,chose_alc_avg_rt,chose_cig_neu_avg_looking_time,chose_cig_neu_avg_prop_time,chose_cig_cig_avg_looking_time,chose_cig_cig_avg_prop_time,chose_cig_alc_avg_looking_time,chose_cig_alc_avg_prop_time,chose_cig_avg_rt,chose_neu_neu_avg_looking_time,chose_neu_neu_avg_prop_time,chose_neu_cig_avg_looking_time,chose_neu_cig_avg_prop_time,chose_neu_alc_avg_looking_time,chose_neu_alc_avg_prop_time,chose_neu_avg_rt
cret03,agg_all_trials,0.524590163934,0.295081967213,0.180327868852,200.606557377,0.254580092475,362.37704918,0.464611510611,238.754098361,0.280808396914,1279.64197279,163.5625,0.192737208158,122.28125,0.169435705552,462.28125,0.63782708629,1363.12672021,181.5,0.207000747251,424.555555556,0.485291119916,289.0,0.307708132833,1258.60556242,339.636363636,0.512343775397,273.545454545,0.270193588694,191.818181818,0.21746263591,1071.20047001
cret04,agg_all_trials,0.644295302013,0.322147651007,0.0335570469799,127.053691275,0.140830122631,391.563758389,0.61512719755,198.469798658,0.244042679819,900.407387285,73.2395833333,0.0969494819977,126.6875,0.172556959819,417.09375,0.730493558184,789.066570944,210.395833333,0.216277230259,325.229166667,0.38625693677,327.125,0.397465832971,1066.10922069,360.2,0.259046189561,359.8,0.251311637095,520.0,0.489642173344,1447.41346037
cret05,agg_all_trials,0.609271523179,0.291390728477,0.0993377483444,202.509933775,0.207735793799,401.178807947,0.51206777958,238.033112583,0.280196426622,1033.80672429,159.913043478,0.16565541666,168.391304348,0.225502889579,438.010869565,0.608841693761,943.898557804,206.977272727,0.235926275293,301.772727273,0.379332060068,303.977272727,0.384741664639,1030.06320572,450.666666667,0.383136694531,478.2,0.324852262375,460.4,0.292011043094,1596.22446655
cret06,agg_all_trials,0.961538461538,0.0384615384615,0.0,13.4615384615,0.0284965609197,260.653846154,0.838404477432,45.3205128205,0.133098961648,530.476898018,14.0,0.0296364233565,42.0533333333,0.11720595836,266.773333333,0.853157618283,531.194363136,0.0,0.0,127.0,0.530424043838,107.666666667,0.469575956162,512.540270067,,,,,,,
cret07,agg_all_trials,0.496124031008,0.317829457364,0.186046511628,285.868217054,0.248548016412,502.333333333,0.428742854632,381.76744186,0.322709128956,1276.06372374,274.078125,0.216268342563,316.796875,0.241761793298,615.34375,0.541969864139,1311.31583024,266.317073171,0.234284736667,547.926829268,0.482130074702,374.902439024,0.283585188631,1303.39060679,350.708333333,0.358993582907,271.166666667,0.266224575058,418.666666667,0.374781842034,1135.3746812
cret08,agg_all_trials,0.0,0.992957746479,0.00704225352113,178.76056338,0.126694599685,393.049295775,0.263671509687,653.323943662,0.609633890628,1448.24923713,,,,,,,,172.460992908,0.124405537265,651.822695035,0.611373393804,392.70212766,0.264221068931,1440.30266661,1067.0,0.449452401011,865.0,0.364363942713,442.0,0.186183656276,2568.71568092
cret09,agg_all_trials,0.0,1.0,0.0,66.5087719298,0.111808447301,72.8596491228,0.106815694499,411.271929825,0.781375858201,804.977159921,,,,,,,,66.5087719298,0.111808447301,411.271929825,0.781375858201,72.8596491228,0.106815694499,804.977159921,,,,,,,
cret10,agg_all_trials,0.412213740458,0.374045801527,0.213740458015,163.282442748,0.240361964308,285.20610687,0.395818996451,238.312977099,0.363819039241,807.277281448,124.148148148,0.127318611093,102.814814815,0.119763162124,534.62962963,0.752918226783,869.188324754,79.387755102,0.105672666234,459.081632653,0.741148965897,120.183673469,0.153178367869,773.05959493,385.571428571,0.694080417139,113.285714286,0.174170859176,92.9642857143,0.131748723685,747.758363623
cret11,agg_all_trials,0.405797101449,0.260869565217,0.333333333333,154.246376812,0.242941873638,281.557971014,0.41877069337,211.84057971,0.338287432992,1021.61043372,100.410714286,0.125409924893,146.0,0.216281892271,382.339285714,0.658308182835,957.51455097,110.888888889,0.15764861433,375.75,0.565946962386,260.416666667,0.276404423285,1111.74518871,253.717391304,0.452775492437,163.717391304,0.308647589997,175.413043478,0.238576917565,1029.099961
cret14,agg_all_trials,0.308270676692,0.684210526316,0.00751879699248,175.233082707,0.207029827818,334.308270677,0.397141465639,276.330827068,0.395828706543,1000.88379993,266.512195122,0.246134843781,289.0,0.271104699518,521.780487805,0.482760456701,1298.27869299,136.032967033,0.191686137416,265.835164835,0.445383794395,253.516483516,0.362930068189,867.764331402,0.0,0.0,712.0,1.0,0.0,0.0,921.564820109
cret15,agg_all_trials,0.564935064935,0.435064935065,0.0,259.318181818,0.199811897031,518.681818182,0.419910116385,462.88961039,0.380277986584,1490.72213076,232.402298851,0.188035360924,386.586206897,0.310308699745,581.735632184,0.50165593933,1445.60366127,294.268656716,0.215103817051,561.970149254,0.471133627703,436.805970149,0.313762555246,1549.30880011,,,,,,,
cret16,agg_all_trials,0.576923076923,0.25,0.173076923077,276.0,0.239939548893,568.134615385,0.524547117089,274.557692308,0.235513334018,1475.02860614,186.6,0.20183417124,169.733333333,0.168488966385,610.733333333,0.629676862375,1241.77600659,294.307692308,0.217673144031,446.384615385,0.368366665293,546.230769231,0.413960190676,1771.42631049,547.555555556,0.399120059203,375.777777778,0.26702863651,457.777777778,0.333851304287,1824.40725388
cret17,agg_all_trials,0.0,0.246753246753,0.753246753247,504.792207792,0.468372773144,300.681818182,0.26177616057,303.733766234,0.269851066286,1377.05839065,,,,,,,,369.421052632,0.265191717632,548.631578947,0.426676929293,381.105263158,0.308131353075,1559.94948336,549.137931034,0.534932084432,223.50862069,0.21847707668,274.336206897,0.246590838888,1317.14579131
cret18,agg_all_trials,0.596153846154,0.403846153846,0.0,172.474358974,0.153581549404,543.224358974,0.501814948806,342.878205128,0.34460350179,1262.19522782,186.322580645,0.149919629885,268.88172043,0.211068659642,709.88172043,0.639011710474,1370.67723014,152.031746032,0.158987240124,452.111111111,0.541726364009,297.206349206,0.299286395868,1102.05512917,,,,,,,
cret19,agg_all_trials,0.0314960629921,0.952755905512,0.0157480314961,190.11023622,0.275751442931,200.417322835,0.29156271269,287.125984252,0.43268584438,867.663117599,166.0,0.25,0.0,0.0,367.75,0.75,533.547656669,190.842975207,0.269105888946,298.768595041,0.449667131619,198.198347107,0.281226979435,884.094082798,194.0,0.729310344828,157.0,0.270689655172,0.0,0.0,541.820644923
cret21,agg_all_trials,0.177215189873,0.632911392405,0.189873417722,215.012658228,0.217074114636,268.037974684,0.282415865226,450.215189873,0.500510020138,1159.15767327,100.0,0.0971734339349,163.5,0.197947254982,495.285714286,0.704879311083,1032.05925005,166.58,0.155434253569,580.66,0.648818305809,218.32,0.195747440622,1183.68621721,483.8,0.53444762018,283.0,0.288540982049,221.666666667,0.177011397771,1196.02105514
cret22,agg_all_trials,0.323529411765,0.490196078431,0.186274509804,267.352941176,0.201378616774,348.509803922,0.302165477015,365.862745098,0.496455906211,1331.13128459,290.060606061,0.218991394898,254.727272727,0.220373731012,664.363636364,0.56063487409,1557.99318272,72.82,0.0843338794216,422.94,0.764387236918,113.62,0.15127888366,966.300744538,739.842105263,0.478800468853,408.684210526,0.270884603382,418.052631579,0.250314927765,1897.18835638
cret24,agg_all_trials,0.382978723404,0.531914893617,0.0851063829787,251.734042553,0.237182968337,501.659574468,0.465956197754,345.585106383,0.296860833909,1337.4589944,255.722222222,0.210565214996,326.972222222,0.205593459387,639.138888889,0.583841325618,1507.63027603,204.58,0.246449787504,351.64,0.370686172509,396.16,0.382864039987,1078.44159482,528.5,0.29904523858,391.5,0.246155653012,542.375,0.454799108408,2190.54697444
cret25,agg_all_trials,0.51677852349,0.375838926174,0.107382550336,142.140939597,0.179135543911,312.060402685,0.469095763346,255.11409396,0.351768692743,1002.15854458,90.8441558442,0.108605653136,112.454545455,0.112581222741,486.103896104,0.778813124123,1003.23465015,108.285714286,0.139934329298,474.017857143,0.721648701797,121.125,0.138416968906,974.283290928,507.5,0.655764894411,175.5,0.208278360438,142.75,0.13595674515,1094.54317427
cret26,agg_all_trials,0.479674796748,0.382113821138,0.138211382114,364.06504065,0.237724559207,619.804878049,0.421514682219,486.910569106,0.340760758574,1705.04011574,270.576271186,0.17771640543,306.338983051,0.215101283209,828.305084746,0.607182311361,1627.35512604,285.170212766,0.182360152028,695.361702128,0.52460260875,470.170212766,0.293037239221,1686.93207943,906.647058824,0.599054453925,537.294117647,0.268604410824,309.882352941,0.132341135251,2024.71612153
cret27,agg_all_trials,0.490566037736,0.490566037736,0.0188679245283,214.169811321,0.252956730406,264.952830189,0.369781009123,255.367924528,0.37726226047,939.861807715,198.365384615,0.229333219882,166.557692308,0.230964420051,401.230769231,0.539702360067,976.604067241,197.5,0.250966596338,348.326923077,0.534951398977,138.865384615,0.214082004685,889.373648624,1058.5,0.91891148983,147.5,0.0810885101704,0.0,0.0,1297.25519644
cret28,agg_all_trials,0.460317460317,0.52380952381,0.015873015873,106.746031746,0.124673560087,295.468253968,0.441405560272,288.944444444,0.433920879642,896.293027118,95.7931034483,0.106045419588,172.827586207,0.171211147991,460.362068966,0.722743432421,938.987304961,104.590909091,0.136997264174,393.060606061,0.67445419788,143.075757576,0.188548537946,841.778286859,495.5,0.258207399687,220.5,0.114903595623,542.5,0.62688900469,1457.14539824
cret29,agg_all_trials,0.545454545455,0.404958677686,0.0495867768595,132.768595041,0.227928717114,220.47107438,0.385873222022,178.115702479,0.386198060864,814.290553953,140.53030303,0.256560068046,117.257575758,0.217372873394,281.787878788,0.52606705856,840.682281367,116.469387755,0.131605083381,271.346938776,0.6448741575,140.040816327,0.223520759119,789.210779835,180.5,0.699626865672,86.1666666667,0.130753667172,202.833333333,0.169619467156,728.799707711
cret30,agg_all_trials,0.453125,0.421875,0.125,257.484375,0.256501057332,420.53125,0.383612008039,396.2890625,0.359886934629,1218.12399765,344.74137931,0.3405663078,329.327586207,0.291569278899,381.379310345,0.367864413301,1149.68502808,148.703703704,0.14414002708,502.666666667,0.453456079276,461.851851852,0.402403893644,1263.92080527,308.3125,0.330983001483,280.0,0.291742573466,423.0,0.377274425051,1311.65103662
cret33,agg_all_trials,0.738562091503,0.209150326797,0.0522875816993,254.816993464,0.183327503378,548.006535948,0.52674553094,347.85620915,0.289926965681,1372.94665413,219.831858407,0.164519041768,264.017699115,0.206909946161,582.522123894,0.628571012071,1285.91029222,261.03125,0.191588794291,618.625,0.589285653722,418.75,0.219125551987,1525.02031946,724.125,0.415951859981,449.0,0.26510761424,577.5,0.31894052578,1994.04060492
cret36,agg_all_trials,0.0147058823529,0.205882352941,0.779411764706,531.330882353,0.714037124868,169.485294118,0.109496833249,275.051470588,0.176466041883,1277.45703368,329.0,0.54614978903,1668.5,0.440005274262,52.5,0.0138449367089,2256.86488311,382.928571429,0.239738984433,846.357142857,0.563244218509,443.0,0.197016797059,1993.27821485,574.349056604,0.842491111697,97.8490566038,0.0693257832955,99.4433962264,0.0881831050074,1069.89279998
cret37,agg_all_trials,0.0,0.461038961039,0.538961038961,408.376623377,0.352146753959,509.175324675,0.32609642077,474.175324675,0.321756825271,1692.2147132,,,,,,,,447.38028169,0.304618117242,598.647887324,0.362084763257,630.450704225,0.333297119501,1990.99223373,375.012048193,0.392803780548,367.698795181,0.287259432536,405.43373494,0.319936786916,1436.63394262
cret38,agg_all_trials,0.414285714286,0.492857142857,0.0928571428571,214.242857143,0.175305885426,374.8,0.381639522472,380.857142857,0.443054592102,1189.56828759,151.75862069,0.124439382117,286.448275862,0.272043093677,519.586206897,0.603517524206,1184.38607041,188.927536232,0.153753842563,457.84057971,0.623912956443,246.057971014,0.222333200994,1097.65897647,627.384615385,0.516640358463,393.461538462,0.246088420493,412.153846154,0.237271221044,1700.51529247
cret39,agg_all_trials,0.519480519481,0.467532467532,0.012987012987,934.376623377,0.232989927013,1594.88311688,0.395881286896,1478.38961039,0.371128786091,4259.11816931,929.6875,0.23857581052,1242.2625,0.320774913779,1678.3125,0.4406492757,4122.55170346,912.388888889,0.224320524922,1732.98611111,0.428182796653,1485.97222222,0.347496678425,4360.53689178,1913.5,0.32165306202,1758.0,0.331339298305,2178.5,0.347007639675,6070.70279436
