sub_id,prop_trials_chose_alc,prop_trials_chose_cig,prop_trials_chose_neu,neu_avg_looking_time,neu_avg_prop_time,cig_avg_looking_time,cig_avg_prop_time,alc_avg_looking_time,alc_avg_prop_time,avg_rt,chose_alc_neu_avg_looking_time,chose_alc_neu_avg_prop_time,chose_alc_cig_avg_looking_time,chose_alc_cig_avg_prop_time,chose_alc_alc_avg_looking_time,chose_alc_alc_avg_prop_time,chose_alc_avg_rt,chose_cig_neu_avg_looking_time,chose_cig_neu_avg_prop_time,chose_cig_cig_avg_looking_time,chose_cig_cig_avg_prop_time,chose_cig_alc_avg_looking_time,chose_cig_alc_avg_prop_time,chose_cig_avg_rt,chose_neu_neu_avg_looking_time,chose_neu_neu_avg_prop_time,chose_neu_cig_avg_looking_time,chose_neu_cig_avg_prop_time,chose_neu_alc_avg_looking_time,chose_neu_alc_avg_prop_time,chose_neu_avg_rt
cret03,0.575757575758,0.272727272727,0.151515151515,150.515151515,0.266634061944,297.272727273,0.460604976782,173.939393939,0.272760961274,1127.34411652,136.894736842,0.235751984515,76.7368421053,0.144981813791,389.210526316,0.619266201694,1237.95280742,140.777777778,0.168439484086,391.444444444,0.582939695556,220.666666667,0.248620820359,1098.1603354,219.8,0.560736196319,151.8,0.2,85.8,0.239263803681,759.561897169
cret04,0.842105263158,0.144736842105,0.0131578947368,70.6710526316,0.0954128348464,412.539473684,0.681435370967,153.368421053,0.223151794187,817.73244028,73.84375,0.0951895606603,139.953125,0.188517549581,438.046875,0.716292889758,815.428861391,58.6363636364,0.105385778733,245.363636364,0.444946653182,263.545454545,0.449667568085,845.076005829,0.0,0.0,0.0,0.0,419.0,1.0,664.382268113
cret05,0.671428571429,0.328571428571,0.0,131.242857143,0.151307464501,368.414285714,0.556933044627,200.128571429,0.291759490872,884.047099098,94.1063829787,0.12324324584,140.042553191,0.231896361293,381.553191489,0.644860392867,794.781697175,207.130434783,0.208656085244,322.913043478,0.414088494795,341.565217391,0.377255419961,1066.45900738,,,,,,,
cret06,0.961538461538,0.0384615384615,0.0,13.4615384615,0.0284965609197,260.653846154,0.838404477432,45.3205128205,0.133098961648,530.476898018,14.0,0.0296364233565,42.0533333333,0.11720595836,266.773333333,0.853157618283,531.194363136,0.0,0.0,127.0,0.530424043838,107.666666667,0.469575956162,512.540270067,,,,,,,
cret07,0.385964912281,0.368421052632,0.245614035088,278.350877193,0.270906683951,453.50877193,0.407252301127,369.350877193,0.321841014921,1197.16292161,208.227272727,0.180502632819,323.0,0.252979406035,633.545454545,0.566517961146,1254.46737517,266.380952381,0.228049771438,526.523809524,0.490113058047,351.80952381,0.281837170515,1243.99731882,406.5,0.477255561644,206.428571429,0.177644049912,323.142857143,0.345100388444,1036.8614702
cret08,0.0,0.985714285714,0.0142857142857,179.657142857,0.125265323091,338.214285714,0.243136700325,620.342857143,0.631597976584,1366.21623049,,,,,,,,166.797101449,0.120566959643,616.797101449,0.635470933596,336.710144928,0.243962106761,1348.78870222,1067.0,0.449452401011,865.0,0.364363942713,442.0,0.186183656276,2568.71568092
cret09,0.0,1.0,0.0,69.4545454545,0.142084829465,51.6181818182,0.0787727047491,394.254545455,0.779142465786,770.372952715,,,,,,,,69.4545454545,0.142084829465,394.254545455,0.779142465786,51.6181818182,0.0787727047491,770.372952715,,,,,,,
cret10,0.328358208955,0.44776119403,0.223880597015,170.776119403,0.252887579284,221.776119403,0.3476343622,248.955223881,0.399478058516,762.985738746,162.363636364,0.153933025101,59.2272727273,0.0753553035541,483.363636364,0.770711671345,804.95793835,67.1333333333,0.090198147589,475.166666667,0.760075594072,112.733333333,0.149726258339,769.543339521,390.4,0.723399788809,74.8,0.153663028016,56.2,0.122937183175,688.311311108
cret11,0.532258064516,0.258064516129,0.209677419355,83.2419354839,0.173023926124,223.419354839,0.442378460935,190.048387097,0.384597612942,837.914021154,60.0303030303,0.0862925524828,128.909090909,0.227703556952,326.454545455,0.686003890565,830.845882218,59.25,0.120471162734,370.5625,0.651918176592,152.5,0.227610660674,867.395625763,171.692307692,0.457868506461,123.076923077,0.453857215191,49.1538461538,0.088274278348,819.571168167
cret14,0.0606060606061,0.924242424242,0.0151515151515,123.515151515,0.192414396715,208.121212121,0.32671232511,269.984848485,0.480873278175,813.86869728,138.75,0.154584912995,268.0,0.327674095454,422.25,0.517740991551,1028.81334404,124.540983607,0.19804935297,262.868852459,0.482408852095,197.491803279,0.319541794935,798.008456135,0.0,0.0,712.0,1.0,0.0,0.0,921.564820109
cret15,0.866666666667,0.133333333333,0.0,215.186666667,0.176502765713,508.2,0.439249690248,473.266666667,0.384247544039,1435.91535905,218.784615385,0.175943412824,414.153846154,0.331307248338,568.553846154,0.492749338838,1442.97809433,191.8,0.180138559493,857.5,0.728359466097,115.9,0.0915019744105,1390.00757971,,,,,,,
cret16,0.846153846154,0.115384615385,0.0384615384615,183.807692308,0.188119963692,611.576923077,0.602258114726,232.076923077,0.209621921582,1347.40940814,154.318181818,0.167008431104,175.863636364,0.167710461678,653.318181818,0.665281107218,1258.59142511,351.0,0.33953707433,387.333333333,0.386527048776,397.666666667,0.273935876895,1697.05534756,331.0,0.198322348712,1003.0,0.600958657879,335.0,0.200718993409,2252.46721654
cret17,0.0,0.367088607595,0.632911392405,485.367088608,0.490547944177,253.101265823,0.240139985068,309.632911392,0.269312070755,1310.97895935,,,,,,,,399.275862069,0.278608843164,555.931034483,0.422762974267,352.172413793,0.298628182569,1556.68517111,535.3,0.613472622764,166.78,0.180310546718,195.64,0.206216830518,1168.46935653
cret18,0.466666666667,0.533333333333,0.0,107.866666667,0.112153593093,460.453333333,0.495637313739,349.266666667,0.392209093169,1125.95437826,101.085714286,0.0977896501819,205.8,0.187554742834,678.028571429,0.714655606984,1196.80743979,113.8,0.12472204314,474.8,0.571281649712,270.075,0.303996307149,1063.95794942,,,,,,,
cret19,0.03125,0.96875,0.0,189.859375,0.276155281311,166.46875,0.24951616713,288.859375,0.474328551559,855.033746831,0.0,0.0,0.0,0.0,540.5,1.0,540.353084323,195.983870968,0.285063516192,298.177419355,0.489629472577,154.403225806,0.225307011231,865.184735944,,,,,,,
cret21,0.128205128205,0.717948717949,0.153846153846,154.769230769,0.169926463143,151.179487179,0.206788757219,428.153846154,0.623284779638,965.529859909,142.4,0.13515825909,214.2,0.198197105528,496.6,0.666644635382,1074.83300209,78.8571428571,0.0967033065229,485.392857143,0.755814935986,93.25,0.147481757491,888.494615466,519.333333333,0.540608030747,339.333333333,0.359050445104,133.666666667,0.100341524149,1233.94171549
cret22,0.170212765957,0.765957446809,0.063829787234,92.0212765957,0.0953576242905,189.319148936,0.265837703739,358.404255319,0.63880467197,996.651907886,142.75,0.142451348046,156.875,0.220921525866,454.25,0.636627126088,1117.69906,58.1111111111,0.0658316372974,407.805555556,0.765803211633,104.027777778,0.16836515107,930.688508356,363.666666667,0.324086204859,303.0,0.229177252296,506.333333333,0.446736542844,1465.42029661
cret24,0.0540540540541,0.945945945946,0.0,165.756756757,0.192776171722,379.675675676,0.379650458413,375.891891892,0.427573369865,1064.39788362,312.0,0.212946994411,970.5,0.329102773218,1251.5,0.457950232371,2557.74806908,157.4,0.191623553282,341.914285714,0.433200261102,329.857142857,0.375176185616,979.063587311,,,,,,,
cret25,0.555555555556,0.361111111111,0.0833333333333,107.305555556,0.173169291276,291.083333333,0.506915776139,210.944444444,0.319914932585,895.444073444,58.775,0.0934677252618,55.85,0.0649092673175,466.475,0.841623007421,875.773833536,113.692307692,0.174109470606,458.269230769,0.731175412089,78.3076923077,0.0947151173052,924.243203052,403.166666667,0.700438954274,173.166666667,0.237823956524,43.8333333333,0.0617370892019,901.78277787
cret26,0.507936507937,0.412698412698,0.0793650793651,251.571428571,0.199117688693,547.428571429,0.425938028404,451.142857143,0.374944282902,1478.43485864,227.84375,0.148532247449,302.1875,0.227838241554,830.53125,0.623629510997,1580.48828979,217.153846154,0.16995807579,680.653846154,0.590338257,281.730769231,0.23970366721,1418.7288092,582.4,0.674494499751,211.0,0.196374282224,117.2,0.129131218025,1135.76435635
cret27,0.411764705882,0.56862745098,0.0196078431373,225.098039216,0.273737507133,225.823529412,0.33732880667,233.882352941,0.388933686197,841.048341695,261.428571429,0.333333333333,62.8571428571,0.142857142857,379.333333333,0.52380952381,833.632683478,186.103448276,0.205538374613,365.793103448,0.580538551588,122.448275862,0.213923073799,854.945817338,593.0,1.0,0.0,0.0,0.0,0.0,593.750370583
cret28,0.515625,0.46875,0.015625,71.09375,0.103834421158,253.390625,0.484994423216,240.078125,0.411171155626,762.332865766,65.4848484848,0.100941700049,67.1818181818,0.0748408492922,408.575757576,0.824217450659,760.677847987,79.6333333333,0.110477561749,438.266666667,0.794840197782,71.2,0.0946822404689,763.655706044,0.0,0.0,0.0,0.0,598.0,1.0,777.263244123
cret29,0.475409836066,0.491803278689,0.0327868852459,107.885245902,0.17481729387,203.491803279,0.426772367151,166.032786885,0.398410338979,736.787935304,129.655172414,0.235906163744,28.4827586207,0.0709573784536,315.379310345,0.693136457803,730.699380221,78.6333333333,0.0874938327814,310.066666667,0.741508890086,73.0666666667,0.170997277132,720.343683539,231.0,0.598880597015,0.0,0.0,537.5,0.401119402985,1071.73576047
cret30,0.590909090909,0.333333333333,0.0757575757576,245.46969697,0.268151418951,349.696969697,0.352140927687,416.409090909,0.379707653362,1128.90034379,309.871794872,0.338807071119,363.051282051,0.33971657538,290.923076923,0.321476353502,1073.63291684,130.863636364,0.106756756757,542.636363636,0.46361334934,479.863636364,0.429629893904,1235.87106126,247.4,0.42717384569,277.2,0.322452999327,235.4,0.250373154983,1089.31511707
cret33,0.684210526316,0.276315789474,0.0394736842105,285.447368421,0.194169630453,479.960526316,0.489458026425,370.065789474,0.316372343122,1355.72615336,251.384615385,0.19210073616,245.923076923,0.190055963146,500.711538462,0.617843300693,1217.35852829,301.238095238,0.177008921774,670.666666667,0.639563459097,403.285714286,0.18342761913,1597.32964012,765.333333333,0.350155425613,417.666666667,0.243518450882,657.0,0.406326123505,2062.87391398
cret36,0.0135135135135,0.27027027027,0.716216216216,486.594594595,0.709511206739,170.540540541,0.0928637945969,315.621621622,0.197624998664,1273.96268159,350.0,0.0922995780591,3337.0,0.880010548523,105.0,0.0276898734177,4005.40861939,366.2,0.222864563125,904.0,0.58616416543,503.65,0.190971271445,2099.19327123,534.603773585,0.90479695204,36.5849056604,0.0381312461133,46.0754716981,0.0570718018464,911.018196102
cret37,0.0,0.324324324324,0.675675675676,402.554054054,0.37554460413,439.22972973,0.346281310457,392.445945946,0.278174085413,1518.51307864,,,,,,,,536.125,0.358198604022,511.083333333,0.280609021371,604.625,0.361192374607,1916.34644591,338.44,0.383870684182,335.5,0.277005316153,359.84,0.339123999665,1327.55306236
cret38,0.348484848485,0.590909090909,0.0606060606061,149.424242424,0.146935003634,308.409090909,0.348885047039,364.121212121,0.504179949327,1042.77318863,127.826086957,0.0918508776955,298.956521739,0.26770263597,530.391304348,0.640446486335,1198.8902511,126.948717949,0.123041088207,422.615384615,0.674383988876,199.641025641,0.202574922917,954.598044471,492.75,0.696634403194,168.5,0.204435115522,92.5,0.0989304812834,1004.80773499
cret39,0.337837837838,0.662162162162,0.0,955.121621622,0.22969168577,1512.83783784,0.351581290675,1712.04054054,0.418727023555,4438.16871038,1040.04,0.239624548385,1595.36,0.364597920841,1726.88,0.395777530774,4688.00422781,911.795918367,0.224623898722,1771.57142857,0.446343912694,1403.63265306,0.329032188584,4310.70160965,,,,,,,
