sub_id,fast_or_slow,med_rt,trial_type,selected_item,looked_at_item,timepoint,nr_trials,nr_trials_used_for_likelihood,mean_fix_likelihood
1.0,fast,1109.63207688,1.0,alcohol,alcohol,338.0,4.0,4.0,1.0
1.0,fast,1109.63207688,1.0,alcohol,cigarette,338.0,4.0,0.0,0.0
1.0,fast,1109.63207688,1.0,alcohol,neutral,338.0,4.0,0.0,0.0
2.0,fast,787.659935166,1.0,alcohol,alcohol,338.0,30.0,21.0,0.7
2.0,fast,787.659935166,1.0,alcohol,cigarette,338.0,30.0,7.0,0.233333333333
2.0,fast,787.659935166,1.0,alcohol,neutral,338.0,30.0,2.0,0.0666666666667
3.0,fast,714.775643664,1.0,alcohol,alcohol,338.0,22.0,19.0,0.863636363636
3.0,fast,714.775643664,1.0,alcohol,cigarette,338.0,22.0,3.0,0.136363636364
3.0,fast,714.775643664,1.0,alcohol,neutral,338.0,22.0,0.0,0.0
4.0,fast,494.923803104,1.0,alcohol,alcohol,338.0,36.0,34.0,0.944444444444
4.0,fast,494.923803104,1.0,alcohol,cigarette,338.0,36.0,2.0,0.0555555555556
4.0,fast,494.923803104,1.0,alcohol,neutral,338.0,36.0,0.0,0.0
5.0,fast,1175.12201487,1.0,alcohol,alcohol,338.0,11.0,6.0,0.545454545455
5.0,fast,1175.12201487,1.0,alcohol,cigarette,338.0,11.0,3.0,0.272727272727
5.0,fast,1175.12201487,1.0,alcohol,neutral,338.0,11.0,2.0,0.181818181818
6.0,fast,,1.0,alcohol,alcohol,338.0,0.0,0.0,
6.0,fast,,1.0,alcohol,cigarette,338.0,0.0,0.0,
6.0,fast,,1.0,alcohol,neutral,338.0,0.0,0.0,
7.0,fast,,1.0,alcohol,alcohol,338.0,0.0,0.0,
7.0,fast,,1.0,alcohol,cigarette,338.0,0.0,0.0,
7.0,fast,,1.0,alcohol,neutral,338.0,0.0,0.0,
8.0,fast,759.406887534,1.0,alcohol,alcohol,338.0,11.0,10.0,0.909090909091
8.0,fast,759.406887534,1.0,alcohol,cigarette,338.0,11.0,0.0,0.0
8.0,fast,759.406887534,1.0,alcohol,neutral,338.0,11.0,1.0,0.0909090909091
9.0,fast,839.833998265,1.0,alcohol,alcohol,338.0,14.0,12.0,0.857142857143
9.0,fast,839.833998265,1.0,alcohol,cigarette,338.0,14.0,1.0,0.0714285714286
9.0,fast,839.833998265,1.0,alcohol,neutral,338.0,14.0,1.0,0.0714285714286
10.0,fast,996.7471564,1.0,alcohol,alcohol,338.0,2.0,0.0,0.0
10.0,fast,996.7471564,1.0,alcohol,cigarette,338.0,2.0,2.0,1.0
10.0,fast,996.7471564,1.0,alcohol,neutral,338.0,2.0,0.0,0.0
11.0,fast,1416.85548073,1.0,alcohol,alcohol,338.0,31.0,10.0,0.322580645161
11.0,fast,1416.85548073,1.0,alcohol,cigarette,338.0,31.0,13.0,0.41935483871
11.0,fast,1416.85548073,1.0,alcohol,neutral,338.0,31.0,8.0,0.258064516129
12.0,fast,1192.64400504,1.0,alcohol,alcohol,338.0,11.0,5.0,0.454545454545
12.0,fast,1192.64400504,1.0,alcohol,cigarette,338.0,11.0,3.0,0.272727272727
12.0,fast,1192.64400504,1.0,alcohol,neutral,338.0,11.0,3.0,0.272727272727
13.0,fast,,1.0,alcohol,alcohol,338.0,0.0,0.0,
13.0,fast,,1.0,alcohol,cigarette,338.0,0.0,0.0,
13.0,fast,,1.0,alcohol,neutral,338.0,0.0,0.0,
14.0,fast,1145.94292682,1.0,alcohol,alcohol,338.0,18.0,12.0,0.666666666667
14.0,fast,1145.94292682,1.0,alcohol,cigarette,338.0,18.0,3.0,0.166666666667
14.0,fast,1145.94292682,1.0,alcohol,neutral,338.0,18.0,3.0,0.166666666667
15.0,fast,540.353084323,1.0,alcohol,alcohol,338.0,1.0,1.0,1.0
15.0,fast,540.353084323,1.0,alcohol,cigarette,338.0,1.0,0.0,0.0
15.0,fast,540.353084323,1.0,alcohol,neutral,338.0,1.0,0.0,0.0
16.0,fast,1136.59624262,1.0,alcohol,alcohol,338.0,3.0,2.0,0.666666666667
16.0,fast,1136.59624262,1.0,alcohol,cigarette,338.0,3.0,1.0,0.333333333333
16.0,fast,1136.59624262,1.0,alcohol,neutral,338.0,3.0,0.0,0.0
17.0,fast,1099.1842882,1.0,alcohol,alcohol,338.0,2.0,1.0,0.5
17.0,fast,1099.1842882,1.0,alcohol,cigarette,338.0,2.0,1.0,0.5
17.0,fast,1099.1842882,1.0,alcohol,neutral,338.0,2.0,0.0,0.0
18.0,fast,2557.74806908,1.0,alcohol,alcohol,338.0,1.0,0.0,0.0
18.0,fast,2557.74806908,1.0,alcohol,cigarette,338.0,1.0,0.0,0.0
18.0,fast,2557.74806908,1.0,alcohol,neutral,338.0,1.0,1.0,1.0
19.0,fast,833.487054285,1.0,alcohol,alcohol,338.0,12.0,10.0,0.833333333333
19.0,fast,833.487054285,1.0,alcohol,cigarette,338.0,12.0,0.0,0.0
19.0,fast,833.487054285,1.0,alcohol,neutral,338.0,12.0,2.0,0.166666666667
20.0,fast,1440.76524575,1.0,alcohol,alcohol,338.0,16.0,8.0,0.5
20.0,fast,1440.76524575,1.0,alcohol,cigarette,338.0,16.0,8.0,0.5
20.0,fast,1440.76524575,1.0,alcohol,neutral,338.0,16.0,0.0,0.0
21.0,fast,765.445645484,1.0,alcohol,alcohol,338.0,11.0,7.0,0.636363636364
21.0,fast,765.445645484,1.0,alcohol,cigarette,338.0,11.0,2.0,0.181818181818
21.0,fast,765.445645484,1.0,alcohol,neutral,338.0,11.0,2.0,0.181818181818
22.0,fast,691.783154336,1.0,alcohol,alcohol,338.0,17.0,16.0,0.941176470588
22.0,fast,691.783154336,1.0,alcohol,cigarette,338.0,17.0,0.0,0.0
22.0,fast,691.783154336,1.0,alcohol,neutral,338.0,17.0,1.0,0.0588235294118
23.0,fast,645.030145974,1.0,alcohol,alcohol,338.0,13.0,12.0,0.923076923077
23.0,fast,645.030145974,1.0,alcohol,cigarette,338.0,13.0,0.0,0.0
23.0,fast,645.030145974,1.0,alcohol,neutral,338.0,13.0,1.0,0.0769230769231
24.0,fast,965.497143694,1.0,alcohol,alcohol,338.0,17.0,7.0,0.411764705882
24.0,fast,965.497143694,1.0,alcohol,cigarette,338.0,17.0,5.0,0.294117647059
24.0,fast,965.497143694,1.0,alcohol,neutral,338.0,17.0,5.0,0.294117647059
25.0,fast,791.54923501,1.0,alcohol,alcohol,338.0,26.0,18.0,0.692307692308
25.0,fast,791.54923501,1.0,alcohol,cigarette,338.0,26.0,6.0,0.230769230769
25.0,fast,791.54923501,1.0,alcohol,neutral,338.0,26.0,2.0,0.0769230769231
26.0,fast,4005.40861939,1.0,alcohol,alcohol,338.0,1.0,0.0,0.0
26.0,fast,4005.40861939,1.0,alcohol,cigarette,338.0,1.0,0.0,0.0
26.0,fast,4005.40861939,1.0,alcohol,neutral,338.0,1.0,1.0,1.0
27.0,fast,,1.0,alcohol,alcohol,338.0,0.0,0.0,
27.0,fast,,1.0,alcohol,cigarette,338.0,0.0,0.0,
27.0,fast,,1.0,alcohol,neutral,338.0,0.0,0.0,
28.0,fast,1180.14623592,1.0,alcohol,alcohol,338.0,11.0,8.0,0.727272727273
28.0,fast,1180.14623592,1.0,alcohol,cigarette,338.0,11.0,3.0,0.272727272727
28.0,fast,1180.14623592,1.0,alcohol,neutral,338.0,11.0,0.0,0.0
29.0,fast,4683.98559883,1.0,alcohol,alcohol,338.0,13.0,3.0,0.230769230769
29.0,fast,4683.98559883,1.0,alcohol,cigarette,338.0,13.0,6.0,0.461538461538
29.0,fast,4683.98559883,1.0,alcohol,neutral,338.0,13.0,4.0,0.307692307692
1.0,fast,1095.46502305,1.0,cigarette,alcohol,338.0,4.0,0.0,0.0
1.0,fast,1095.46502305,1.0,cigarette,cigarette,338.0,4.0,4.0,1.0
1.0,fast,1095.46502305,1.0,cigarette,neutral,338.0,4.0,0.0,0.0
2.0,fast,751.626463894,1.0,cigarette,alcohol,338.0,6.0,3.0,0.5
2.0,fast,751.626463894,1.0,cigarette,cigarette,338.0,6.0,2.0,0.333333333333
2.0,fast,751.626463894,1.0,cigarette,neutral,338.0,6.0,1.0,0.166666666667
3.0,fast,957.449694183,1.0,cigarette,alcohol,338.0,11.0,3.0,0.272727272727
3.0,fast,957.449694183,1.0,cigarette,cigarette,338.0,11.0,8.0,0.727272727273
3.0,fast,957.449694183,1.0,cigarette,neutral,338.0,11.0,0.0,0.0
4.0,fast,553.014286521,1.0,cigarette,alcohol,338.0,2.0,1.0,0.5
4.0,fast,553.014286521,1.0,cigarette,cigarette,338.0,2.0,1.0,0.5
4.0,fast,553.014286521,1.0,cigarette,neutral,338.0,2.0,0.0,0.0
5.0,fast,1231.78865172,1.0,cigarette,alcohol,338.0,11.0,4.0,0.363636363636
5.0,fast,1231.78865172,1.0,cigarette,cigarette,338.0,11.0,5.0,0.454545454545
5.0,fast,1231.78865172,1.0,cigarette,neutral,338.0,11.0,2.0,0.181818181818
6.0,fast,1157.73586459,1.0,cigarette,alcohol,338.0,32.0,4.0,0.125
6.0,fast,1157.73586459,1.0,cigarette,cigarette,338.0,32.0,27.0,0.84375
6.0,fast,1157.73586459,1.0,cigarette,neutral,338.0,32.0,1.0,0.03125
7.0,fast,721.802943481,1.0,cigarette,alcohol,338.0,24.0,1.0,0.0416666666667
7.0,fast,721.802943481,1.0,cigarette,cigarette,338.0,24.0,23.0,0.958333333333
7.0,fast,721.802943481,1.0,cigarette,neutral,338.0,24.0,0.0,0.0
8.0,fast,688.340119045,1.0,cigarette,alcohol,338.0,15.0,1.0,0.0666666666667
8.0,fast,688.340119045,1.0,cigarette,cigarette,338.0,15.0,14.0,0.933333333333
8.0,fast,688.340119045,1.0,cigarette,neutral,338.0,15.0,0.0,0.0
9.0,fast,770.303750644,1.0,cigarette,alcohol,338.0,7.0,1.0,0.142857142857
9.0,fast,770.303750644,1.0,cigarette,cigarette,338.0,7.0,6.0,0.857142857143
9.0,fast,770.303750644,1.0,cigarette,neutral,338.0,7.0,0.0,0.0
10.0,fast,702.34403998,1.0,cigarette,alcohol,338.0,31.0,1.0,0.0322580645161
10.0,fast,702.34403998,1.0,cigarette,cigarette,338.0,31.0,29.0,0.935483870968
10.0,fast,702.34403998,1.0,cigarette,neutral,338.0,31.0,1.0,0.0322580645161
11.0,fast,1393.44906807,1.0,cigarette,alcohol,338.0,5.0,1.0,0.2
11.0,fast,1393.44906807,1.0,cigarette,cigarette,338.0,5.0,1.0,0.2
11.0,fast,1393.44906807,1.0,cigarette,neutral,338.0,5.0,3.0,0.6
12.0,fast,1706.92875788,1.0,cigarette,alcohol,338.0,2.0,1.0,0.5
12.0,fast,1706.92875788,1.0,cigarette,cigarette,338.0,2.0,0.0,0.0
12.0,fast,1706.92875788,1.0,cigarette,neutral,338.0,2.0,1.0,0.5
13.0,fast,1219.56536374,1.0,cigarette,alcohol,338.0,14.0,5.0,0.357142857143
13.0,fast,1219.56536374,1.0,cigarette,cigarette,338.0,14.0,5.0,0.357142857143
13.0,fast,1219.56536374,1.0,cigarette,neutral,338.0,14.0,4.0,0.285714285714
14.0,fast,973.540914209,1.0,cigarette,alcohol,338.0,20.0,5.0,0.25
14.0,fast,973.540914209,1.0,cigarette,cigarette,338.0,20.0,12.0,0.6
14.0,fast,973.540914209,1.0,cigarette,neutral,338.0,20.0,3.0,0.15
15.0,fast,728.525599288,1.0,cigarette,alcohol,338.0,26.0,6.0,0.230769230769
15.0,fast,728.525599288,1.0,cigarette,cigarette,338.0,26.0,15.0,0.576923076923
15.0,fast,728.525599288,1.0,cigarette,neutral,338.0,26.0,5.0,0.192307692308
16.0,fast,688.812354059,1.0,cigarette,alcohol,338.0,12.0,2.0,0.166666666667
16.0,fast,688.812354059,1.0,cigarette,cigarette,338.0,12.0,9.0,0.75
16.0,fast,688.812354059,1.0,cigarette,neutral,338.0,12.0,1.0,0.0833333333333
17.0,fast,859.501139099,1.0,cigarette,alcohol,338.0,10.0,1.0,0.1
17.0,fast,859.501139099,1.0,cigarette,cigarette,338.0,10.0,8.0,0.8
17.0,fast,859.501139099,1.0,cigarette,neutral,338.0,10.0,1.0,0.1
18.0,fast,780.185110258,1.0,cigarette,alcohol,338.0,17.0,6.0,0.352941176471
18.0,fast,780.185110258,1.0,cigarette,cigarette,338.0,17.0,8.0,0.470588235294
18.0,fast,780.185110258,1.0,cigarette,neutral,338.0,17.0,3.0,0.176470588235
19.0,fast,875.779015802,1.0,cigarette,alcohol,338.0,12.0,1.0,0.0833333333333
19.0,fast,875.779015802,1.0,cigarette,cigarette,338.0,12.0,8.0,0.666666666667
19.0,fast,875.779015802,1.0,cigarette,neutral,338.0,12.0,3.0,0.25
20.0,fast,1329.5685044,1.0,cigarette,alcohol,338.0,11.0,3.0,0.272727272727
20.0,fast,1329.5685044,1.0,cigarette,cigarette,338.0,11.0,6.0,0.545454545455
20.0,fast,1329.5685044,1.0,cigarette,neutral,338.0,11.0,2.0,0.181818181818
21.0,fast,791.950632107,1.0,cigarette,alcohol,338.0,15.0,2.0,0.133333333333
21.0,fast,791.950632107,1.0,cigarette,cigarette,338.0,15.0,10.0,0.666666666667
21.0,fast,791.950632107,1.0,cigarette,neutral,338.0,15.0,3.0,0.2
22.0,fast,614.077402704,1.0,cigarette,alcohol,338.0,14.0,1.0,0.0714285714286
22.0,fast,614.077402704,1.0,cigarette,cigarette,338.0,14.0,11.0,0.785714285714
22.0,fast,614.077402704,1.0,cigarette,neutral,338.0,14.0,2.0,0.142857142857
23.0,fast,626.004045345,1.0,cigarette,alcohol,338.0,14.0,1.0,0.0714285714286
23.0,fast,626.004045345,1.0,cigarette,cigarette,338.0,14.0,13.0,0.928571428571
23.0,fast,626.004045345,1.0,cigarette,neutral,338.0,14.0,0.0,0.0
24.0,fast,1260.26576809,1.0,cigarette,alcohol,338.0,10.0,4.0,0.4
24.0,fast,1260.26576809,1.0,cigarette,cigarette,338.0,10.0,5.0,0.5
24.0,fast,1260.26576809,1.0,cigarette,neutral,338.0,10.0,1.0,0.1
25.0,fast,1037.7401836,1.0,cigarette,alcohol,338.0,11.0,1.0,0.0909090909091
25.0,fast,1037.7401836,1.0,cigarette,cigarette,338.0,11.0,9.0,0.818181818182
25.0,fast,1037.7401836,1.0,cigarette,neutral,338.0,11.0,1.0,0.0909090909091
26.0,fast,1450.23512977,1.0,cigarette,alcohol,338.0,9.0,0.0,0.0
26.0,fast,1450.23512977,1.0,cigarette,cigarette,338.0,9.0,4.0,0.444444444444
26.0,fast,1450.23512977,1.0,cigarette,neutral,338.0,9.0,5.0,0.555555555556
27.0,fast,1513.54420921,1.0,cigarette,alcohol,338.0,12.0,2.0,0.166666666667
27.0,fast,1513.54420921,1.0,cigarette,cigarette,338.0,12.0,4.0,0.333333333333
27.0,fast,1513.54420921,1.0,cigarette,neutral,338.0,12.0,6.0,0.5
28.0,fast,687.183213569,1.0,cigarette,alcohol,338.0,20.0,1.0,0.05
28.0,fast,687.183213569,1.0,cigarette,cigarette,338.0,20.0,18.0,0.9
28.0,fast,687.183213569,1.0,cigarette,neutral,338.0,20.0,1.0,0.05
29.0,fast,4039.46284367,1.0,cigarette,alcohol,338.0,25.0,9.0,0.36
29.0,fast,4039.46284367,1.0,cigarette,cigarette,338.0,25.0,10.0,0.4
29.0,fast,4039.46284367,1.0,cigarette,neutral,338.0,25.0,6.0,0.24
1.0,fast,778.052169846,1.0,neutral,alcohol,338.0,3.0,0.0,0.0
1.0,fast,778.052169846,1.0,neutral,cigarette,338.0,3.0,1.0,0.333333333333
1.0,fast,778.052169846,1.0,neutral,neutral,338.0,3.0,2.0,0.666666666667
2.0,fast,664.382268113,1.0,neutral,alcohol,338.0,1.0,1.0,1.0
2.0,fast,664.382268113,1.0,neutral,cigarette,338.0,1.0,0.0,0.0
2.0,fast,664.382268113,1.0,neutral,neutral,338.0,1.0,0.0,0.0
3.0,fast,,1.0,neutral,alcohol,338.0,0.0,0.0,
3.0,fast,,1.0,neutral,cigarette,338.0,0.0,0.0,
3.0,fast,,1.0,neutral,neutral,338.0,0.0,0.0,
4.0,fast,,1.0,neutral,alcohol,338.0,0.0,0.0,
4.0,fast,,1.0,neutral,cigarette,338.0,0.0,0.0,
4.0,fast,,1.0,neutral,neutral,338.0,0.0,0.0,
5.0,fast,1003.1230368,1.0,neutral,alcohol,338.0,7.0,3.0,0.428571428571
5.0,fast,1003.1230368,1.0,neutral,cigarette,338.0,7.0,0.0,0.0
5.0,fast,1003.1230368,1.0,neutral,neutral,338.0,7.0,4.0,0.571428571429
6.0,fast,2568.71568092,1.0,neutral,alcohol,338.0,1.0,0.0,0.0
6.0,fast,2568.71568092,1.0,neutral,cigarette,338.0,1.0,0.0,0.0
6.0,fast,2568.71568092,1.0,neutral,neutral,338.0,1.0,1.0,1.0
7.0,fast,,1.0,neutral,alcohol,338.0,0.0,0.0,
7.0,fast,,1.0,neutral,cigarette,338.0,0.0,0.0,
7.0,fast,,1.0,neutral,neutral,338.0,0.0,0.0,
8.0,fast,621.870629425,1.0,neutral,alcohol,338.0,8.0,1.0,0.125
8.0,fast,621.870629425,1.0,neutral,cigarette,338.0,8.0,0.0,0.0
8.0,fast,621.870629425,1.0,neutral,neutral,338.0,8.0,7.0,0.875
9.0,fast,748.195986771,1.0,neutral,alcohol,338.0,4.0,1.0,0.25
9.0,fast,748.195986771,1.0,neutral,cigarette,338.0,4.0,1.0,0.25
9.0,fast,748.195986771,1.0,neutral,neutral,338.0,4.0,2.0,0.5
10.0,fast,921.564820109,1.0,neutral,alcohol,338.0,1.0,0.0,0.0
10.0,fast,921.564820109,1.0,neutral,cigarette,338.0,1.0,1.0,1.0
10.0,fast,921.564820109,1.0,neutral,neutral,338.0,1.0,0.0,0.0
11.0,fast,,1.0,neutral,alcohol,338.0,0.0,0.0,
11.0,fast,,1.0,neutral,cigarette,338.0,0.0,0.0,
11.0,fast,,1.0,neutral,neutral,338.0,0.0,0.0,
12.0,fast,2252.46721654,1.0,neutral,alcohol,338.0,1.0,0.0,0.0
12.0,fast,2252.46721654,1.0,neutral,cigarette,338.0,1.0,1.0,1.0
12.0,fast,2252.46721654,1.0,neutral,neutral,338.0,1.0,0.0,0.0
13.0,fast,937.27906955,1.0,neutral,alcohol,338.0,22.0,4.0,0.181818181818
13.0,fast,937.27906955,1.0,neutral,cigarette,338.0,22.0,4.0,0.181818181818
13.0,fast,937.27906955,1.0,neutral,neutral,338.0,22.0,14.0,0.636363636364
14.0,fast,,1.0,neutral,alcohol,338.0,0.0,0.0,
14.0,fast,,1.0,neutral,cigarette,338.0,0.0,0.0,
14.0,fast,,1.0,neutral,neutral,338.0,0.0,0.0,
15.0,fast,,1.0,neutral,alcohol,338.0,0.0,0.0,
15.0,fast,,1.0,neutral,cigarette,338.0,0.0,0.0,
15.0,fast,,1.0,neutral,neutral,338.0,0.0,0.0,
16.0,fast,902.357194815,1.0,neutral,alcohol,338.0,2.0,0.0,0.0
16.0,fast,902.357194815,1.0,neutral,cigarette,338.0,2.0,1.0,0.5
16.0,fast,902.357194815,1.0,neutral,neutral,338.0,2.0,1.0,0.5
17.0,fast,1457.24780827,1.0,neutral,alcohol,338.0,2.0,1.0,0.5
17.0,fast,1457.24780827,1.0,neutral,cigarette,338.0,2.0,1.0,0.5
17.0,fast,1457.24780827,1.0,neutral,neutral,338.0,2.0,0.0,0.0
18.0,fast,,1.0,neutral,alcohol,338.0,0.0,0.0,
18.0,fast,,1.0,neutral,cigarette,338.0,0.0,0.0,
18.0,fast,,1.0,neutral,neutral,338.0,0.0,0.0,
19.0,fast,940.253740422,1.0,neutral,alcohol,338.0,2.0,0.0,0.0
19.0,fast,940.253740422,1.0,neutral,cigarette,338.0,2.0,1.0,0.5
19.0,fast,940.253740422,1.0,neutral,neutral,338.0,2.0,1.0,0.5
20.0,fast,1041.06714984,1.0,neutral,alcohol,338.0,2.0,0.0,0.0
20.0,fast,1041.06714984,1.0,neutral,cigarette,338.0,2.0,1.0,0.5
20.0,fast,1041.06714984,1.0,neutral,neutral,338.0,2.0,1.0,0.5
21.0,fast,593.750370583,1.0,neutral,alcohol,338.0,1.0,0.0,0.0
21.0,fast,593.750370583,1.0,neutral,cigarette,338.0,1.0,0.0,0.0
21.0,fast,593.750370583,1.0,neutral,neutral,338.0,1.0,1.0,1.0
22.0,fast,777.263244123,1.0,neutral,alcohol,338.0,1.0,1.0,1.0
22.0,fast,777.263244123,1.0,neutral,cigarette,338.0,1.0,0.0,0.0
22.0,fast,777.263244123,1.0,neutral,neutral,338.0,1.0,0.0,0.0
23.0,fast,1071.73576047,1.0,neutral,alcohol,338.0,1.0,0.0,0.0
23.0,fast,1071.73576047,1.0,neutral,cigarette,338.0,1.0,0.0,0.0
23.0,fast,1071.73576047,1.0,neutral,neutral,338.0,1.0,1.0,1.0
24.0,fast,956.39468444,1.0,neutral,alcohol,338.0,1.0,0.0,0.0
24.0,fast,956.39468444,1.0,neutral,cigarette,338.0,1.0,1.0,1.0
24.0,fast,956.39468444,1.0,neutral,neutral,338.0,1.0,0.0,0.0
25.0,fast,1488.34284509,1.0,neutral,alcohol,338.0,2.0,0.0,0.0
25.0,fast,1488.34284509,1.0,neutral,cigarette,338.0,2.0,2.0,1.0
25.0,fast,1488.34284509,1.0,neutral,neutral,338.0,2.0,0.0,0.0
26.0,fast,793.979708687,1.0,neutral,alcohol,338.0,25.0,0.0,0.0
26.0,fast,793.979708687,1.0,neutral,cigarette,338.0,25.0,1.0,0.04
26.0,fast,793.979708687,1.0,neutral,neutral,338.0,25.0,24.0,0.96
27.0,fast,1184.34270518,1.0,neutral,alcohol,338.0,25.0,5.0,0.2
27.0,fast,1184.34270518,1.0,neutral,cigarette,338.0,25.0,9.0,0.36
27.0,fast,1184.34270518,1.0,neutral,neutral,338.0,25.0,11.0,0.44
28.0,fast,997.060175905,1.0,neutral,alcohol,338.0,2.0,0.0,0.0
28.0,fast,997.060175905,1.0,neutral,cigarette,338.0,2.0,0.0,0.0
28.0,fast,997.060175905,1.0,neutral,neutral,338.0,2.0,2.0,1.0
29.0,fast,,1.0,neutral,alcohol,338.0,0.0,0.0,
29.0,fast,,1.0,neutral,cigarette,338.0,0.0,0.0,
29.0,fast,,1.0,neutral,neutral,338.0,0.0,0.0,
