sub_id,fast_or_slow,med_rt,trial_type,selected_item,looked_at_item,timepoint,nr_trials,nr_trials_used_for_likelihood,mean_fix_likelihood
1.0,fast,1109.63207688,1.0,alcohol,alcohol,594.0,7.0,6.0,0.857142857143
1.0,fast,1109.63207688,1.0,alcohol,cigarette,594.0,7.0,1.0,0.142857142857
1.0,fast,1109.63207688,1.0,alcohol,neutral,594.0,7.0,0.0,0.0
2.0,fast,787.659935166,1.0,alcohol,alcohol,594.0,22.0,22.0,1.0
2.0,fast,787.659935166,1.0,alcohol,cigarette,594.0,22.0,0.0,0.0
2.0,fast,787.659935166,1.0,alcohol,neutral,594.0,22.0,0.0,0.0
3.0,fast,714.775643664,1.0,alcohol,alcohol,594.0,16.0,11.0,0.6875
3.0,fast,714.775643664,1.0,alcohol,cigarette,594.0,16.0,3.0,0.1875
3.0,fast,714.775643664,1.0,alcohol,neutral,594.0,16.0,2.0,0.125
4.0,fast,494.923803104,1.0,alcohol,alcohol,594.0,0.0,0.0,
4.0,fast,494.923803104,1.0,alcohol,cigarette,594.0,0.0,0.0,
4.0,fast,494.923803104,1.0,alcohol,neutral,594.0,0.0,0.0,
5.0,fast,1175.12201487,1.0,alcohol,alcohol,594.0,10.0,6.0,0.6
5.0,fast,1175.12201487,1.0,alcohol,cigarette,594.0,10.0,0.0,0.0
5.0,fast,1175.12201487,1.0,alcohol,neutral,594.0,10.0,4.0,0.4
6.0,fast,,1.0,alcohol,alcohol,594.0,0.0,0.0,
6.0,fast,,1.0,alcohol,cigarette,594.0,0.0,0.0,
6.0,fast,,1.0,alcohol,neutral,594.0,0.0,0.0,
7.0,fast,,1.0,alcohol,alcohol,594.0,0.0,0.0,
7.0,fast,,1.0,alcohol,cigarette,594.0,0.0,0.0,
7.0,fast,,1.0,alcohol,neutral,594.0,0.0,0.0,
8.0,fast,759.406887534,1.0,alcohol,alcohol,594.0,5.0,5.0,1.0
8.0,fast,759.406887534,1.0,alcohol,cigarette,594.0,5.0,0.0,0.0
8.0,fast,759.406887534,1.0,alcohol,neutral,594.0,5.0,0.0,0.0
9.0,fast,839.833998265,1.0,alcohol,alcohol,594.0,9.0,7.0,0.777777777778
9.0,fast,839.833998265,1.0,alcohol,cigarette,594.0,9.0,2.0,0.222222222222
9.0,fast,839.833998265,1.0,alcohol,neutral,594.0,9.0,0.0,0.0
10.0,fast,996.7471564,1.0,alcohol,alcohol,594.0,2.0,2.0,1.0
10.0,fast,996.7471564,1.0,alcohol,cigarette,594.0,2.0,0.0,0.0
10.0,fast,996.7471564,1.0,alcohol,neutral,594.0,2.0,0.0,0.0
11.0,fast,1416.85548073,1.0,alcohol,alcohol,594.0,31.0,20.0,0.645161290323
11.0,fast,1416.85548073,1.0,alcohol,cigarette,594.0,31.0,8.0,0.258064516129
11.0,fast,1416.85548073,1.0,alcohol,neutral,594.0,31.0,3.0,0.0967741935484
12.0,fast,1192.64400504,1.0,alcohol,alcohol,594.0,10.0,9.0,0.9
12.0,fast,1192.64400504,1.0,alcohol,cigarette,594.0,10.0,0.0,0.0
12.0,fast,1192.64400504,1.0,alcohol,neutral,594.0,10.0,1.0,0.1
13.0,fast,,1.0,alcohol,alcohol,594.0,0.0,0.0,
13.0,fast,,1.0,alcohol,cigarette,594.0,0.0,0.0,
13.0,fast,,1.0,alcohol,neutral,594.0,0.0,0.0,
14.0,fast,1145.94292682,1.0,alcohol,alcohol,594.0,18.0,14.0,0.777777777778
14.0,fast,1145.94292682,1.0,alcohol,cigarette,594.0,18.0,3.0,0.166666666667
14.0,fast,1145.94292682,1.0,alcohol,neutral,594.0,18.0,1.0,0.0555555555556
15.0,fast,540.353084323,1.0,alcohol,alcohol,594.0,0.0,0.0,
15.0,fast,540.353084323,1.0,alcohol,cigarette,594.0,0.0,0.0,
15.0,fast,540.353084323,1.0,alcohol,neutral,594.0,0.0,0.0,
16.0,fast,1136.59624262,1.0,alcohol,alcohol,594.0,2.0,1.0,0.5
16.0,fast,1136.59624262,1.0,alcohol,cigarette,594.0,2.0,1.0,0.5
16.0,fast,1136.59624262,1.0,alcohol,neutral,594.0,2.0,0.0,0.0
17.0,fast,1099.1842882,1.0,alcohol,alcohol,594.0,4.0,2.0,0.5
17.0,fast,1099.1842882,1.0,alcohol,cigarette,594.0,4.0,2.0,0.5
17.0,fast,1099.1842882,1.0,alcohol,neutral,594.0,4.0,0.0,0.0
18.0,fast,2557.74806908,1.0,alcohol,alcohol,594.0,1.0,1.0,1.0
18.0,fast,2557.74806908,1.0,alcohol,cigarette,594.0,1.0,0.0,0.0
18.0,fast,2557.74806908,1.0,alcohol,neutral,594.0,1.0,0.0,0.0
19.0,fast,833.487054285,1.0,alcohol,alcohol,594.0,16.0,16.0,1.0
19.0,fast,833.487054285,1.0,alcohol,cigarette,594.0,16.0,0.0,0.0
19.0,fast,833.487054285,1.0,alcohol,neutral,594.0,16.0,0.0,0.0
20.0,fast,1440.76524575,1.0,alcohol,alcohol,594.0,16.0,12.0,0.75
20.0,fast,1440.76524575,1.0,alcohol,cigarette,594.0,16.0,4.0,0.25
20.0,fast,1440.76524575,1.0,alcohol,neutral,594.0,16.0,0.0,0.0
21.0,fast,765.445645484,1.0,alcohol,alcohol,594.0,7.0,3.0,0.428571428571
21.0,fast,765.445645484,1.0,alcohol,cigarette,594.0,7.0,2.0,0.285714285714
21.0,fast,765.445645484,1.0,alcohol,neutral,594.0,7.0,2.0,0.285714285714
22.0,fast,691.783154336,1.0,alcohol,alcohol,594.0,4.0,4.0,1.0
22.0,fast,691.783154336,1.0,alcohol,cigarette,594.0,4.0,0.0,0.0
22.0,fast,691.783154336,1.0,alcohol,neutral,594.0,4.0,0.0,0.0
23.0,fast,645.030145974,1.0,alcohol,alcohol,594.0,3.0,2.0,0.666666666667
23.0,fast,645.030145974,1.0,alcohol,cigarette,594.0,3.0,0.0,0.0
23.0,fast,645.030145974,1.0,alcohol,neutral,594.0,3.0,1.0,0.333333333333
24.0,fast,965.497143694,1.0,alcohol,alcohol,594.0,18.0,7.0,0.388888888889
24.0,fast,965.497143694,1.0,alcohol,cigarette,594.0,18.0,6.0,0.333333333333
24.0,fast,965.497143694,1.0,alcohol,neutral,594.0,18.0,5.0,0.277777777778
25.0,fast,791.54923501,1.0,alcohol,alcohol,594.0,15.0,12.0,0.8
25.0,fast,791.54923501,1.0,alcohol,cigarette,594.0,15.0,0.0,0.0
25.0,fast,791.54923501,1.0,alcohol,neutral,594.0,15.0,3.0,0.2
26.0,fast,4005.40861939,1.0,alcohol,alcohol,594.0,1.0,0.0,0.0
26.0,fast,4005.40861939,1.0,alcohol,cigarette,594.0,1.0,0.0,0.0
26.0,fast,4005.40861939,1.0,alcohol,neutral,594.0,1.0,1.0,1.0
27.0,fast,,1.0,alcohol,alcohol,594.0,0.0,0.0,
27.0,fast,,1.0,alcohol,cigarette,594.0,0.0,0.0,
27.0,fast,,1.0,alcohol,neutral,594.0,0.0,0.0,
28.0,fast,1180.14623592,1.0,alcohol,alcohol,594.0,12.0,10.0,0.833333333333
28.0,fast,1180.14623592,1.0,alcohol,cigarette,594.0,12.0,1.0,0.0833333333333
28.0,fast,1180.14623592,1.0,alcohol,neutral,594.0,12.0,1.0,0.0833333333333
29.0,fast,4683.98559883,1.0,alcohol,alcohol,594.0,13.0,2.0,0.153846153846
29.0,fast,4683.98559883,1.0,alcohol,cigarette,594.0,13.0,5.0,0.384615384615
29.0,fast,4683.98559883,1.0,alcohol,neutral,594.0,13.0,6.0,0.461538461538
1.0,fast,1095.46502305,1.0,cigarette,alcohol,594.0,4.0,0.0,0.0
1.0,fast,1095.46502305,1.0,cigarette,cigarette,594.0,4.0,4.0,1.0
1.0,fast,1095.46502305,1.0,cigarette,neutral,594.0,4.0,0.0,0.0
2.0,fast,751.626463894,1.0,cigarette,alcohol,594.0,6.0,2.0,0.333333333333
2.0,fast,751.626463894,1.0,cigarette,cigarette,594.0,6.0,4.0,0.666666666667
2.0,fast,751.626463894,1.0,cigarette,neutral,594.0,6.0,0.0,0.0
3.0,fast,957.449694183,1.0,cigarette,alcohol,594.0,12.0,5.0,0.416666666667
3.0,fast,957.449694183,1.0,cigarette,cigarette,594.0,12.0,6.0,0.5
3.0,fast,957.449694183,1.0,cigarette,neutral,594.0,12.0,1.0,0.0833333333333
4.0,fast,553.014286521,1.0,cigarette,alcohol,594.0,0.0,0.0,
4.0,fast,553.014286521,1.0,cigarette,cigarette,594.0,0.0,0.0,
4.0,fast,553.014286521,1.0,cigarette,neutral,594.0,0.0,0.0,
5.0,fast,1231.78865172,1.0,cigarette,alcohol,594.0,9.0,2.0,0.222222222222
5.0,fast,1231.78865172,1.0,cigarette,cigarette,594.0,9.0,6.0,0.666666666667
5.0,fast,1231.78865172,1.0,cigarette,neutral,594.0,9.0,1.0,0.111111111111
6.0,fast,1157.73586459,1.0,cigarette,alcohol,594.0,31.0,5.0,0.161290322581
6.0,fast,1157.73586459,1.0,cigarette,cigarette,594.0,31.0,24.0,0.774193548387
6.0,fast,1157.73586459,1.0,cigarette,neutral,594.0,31.0,2.0,0.0645161290323
7.0,fast,721.802943481,1.0,cigarette,alcohol,594.0,19.0,6.0,0.315789473684
7.0,fast,721.802943481,1.0,cigarette,cigarette,594.0,19.0,11.0,0.578947368421
7.0,fast,721.802943481,1.0,cigarette,neutral,594.0,19.0,2.0,0.105263157895
8.0,fast,688.340119045,1.0,cigarette,alcohol,594.0,5.0,2.0,0.4
8.0,fast,688.340119045,1.0,cigarette,cigarette,594.0,5.0,3.0,0.6
8.0,fast,688.340119045,1.0,cigarette,neutral,594.0,5.0,0.0,0.0
9.0,fast,770.303750644,1.0,cigarette,alcohol,594.0,3.0,1.0,0.333333333333
9.0,fast,770.303750644,1.0,cigarette,cigarette,594.0,3.0,2.0,0.666666666667
9.0,fast,770.303750644,1.0,cigarette,neutral,594.0,3.0,0.0,0.0
10.0,fast,702.34403998,1.0,cigarette,alcohol,594.0,22.0,10.0,0.454545454545
10.0,fast,702.34403998,1.0,cigarette,cigarette,594.0,22.0,3.0,0.136363636364
10.0,fast,702.34403998,1.0,cigarette,neutral,594.0,22.0,9.0,0.409090909091
11.0,fast,1393.44906807,1.0,cigarette,alcohol,594.0,5.0,0.0,0.0
11.0,fast,1393.44906807,1.0,cigarette,cigarette,594.0,5.0,4.0,0.8
11.0,fast,1393.44906807,1.0,cigarette,neutral,594.0,5.0,1.0,0.2
12.0,fast,1706.92875788,1.0,cigarette,alcohol,594.0,2.0,2.0,1.0
12.0,fast,1706.92875788,1.0,cigarette,cigarette,594.0,2.0,0.0,0.0
12.0,fast,1706.92875788,1.0,cigarette,neutral,594.0,2.0,0.0,0.0
13.0,fast,1219.56536374,1.0,cigarette,alcohol,594.0,13.0,6.0,0.461538461538
13.0,fast,1219.56536374,1.0,cigarette,cigarette,594.0,13.0,6.0,0.461538461538
13.0,fast,1219.56536374,1.0,cigarette,neutral,594.0,13.0,1.0,0.0769230769231
14.0,fast,973.540914209,1.0,cigarette,alcohol,594.0,20.0,7.0,0.35
14.0,fast,973.540914209,1.0,cigarette,cigarette,594.0,20.0,12.0,0.6
14.0,fast,973.540914209,1.0,cigarette,neutral,594.0,20.0,1.0,0.05
15.0,fast,728.525599288,1.0,cigarette,alcohol,594.0,15.0,2.0,0.133333333333
15.0,fast,728.525599288,1.0,cigarette,cigarette,594.0,15.0,8.0,0.533333333333
15.0,fast,728.525599288,1.0,cigarette,neutral,594.0,15.0,5.0,0.333333333333
16.0,fast,688.812354059,1.0,cigarette,alcohol,594.0,10.0,1.0,0.1
16.0,fast,688.812354059,1.0,cigarette,cigarette,594.0,10.0,8.0,0.8
16.0,fast,688.812354059,1.0,cigarette,neutral,594.0,10.0,1.0,0.1
17.0,fast,859.501139099,1.0,cigarette,alcohol,594.0,12.0,1.0,0.0833333333333
17.0,fast,859.501139099,1.0,cigarette,cigarette,594.0,12.0,11.0,0.916666666667
17.0,fast,859.501139099,1.0,cigarette,neutral,594.0,12.0,0.0,0.0
18.0,fast,780.185110258,1.0,cigarette,alcohol,594.0,10.0,3.0,0.3
18.0,fast,780.185110258,1.0,cigarette,cigarette,594.0,10.0,4.0,0.4
18.0,fast,780.185110258,1.0,cigarette,neutral,594.0,10.0,3.0,0.3
19.0,fast,875.779015802,1.0,cigarette,alcohol,594.0,12.0,0.0,0.0
19.0,fast,875.779015802,1.0,cigarette,cigarette,594.0,12.0,12.0,1.0
19.0,fast,875.779015802,1.0,cigarette,neutral,594.0,12.0,0.0,0.0
20.0,fast,1329.5685044,1.0,cigarette,alcohol,594.0,13.0,2.0,0.153846153846
20.0,fast,1329.5685044,1.0,cigarette,cigarette,594.0,13.0,8.0,0.615384615385
20.0,fast,1329.5685044,1.0,cigarette,neutral,594.0,13.0,3.0,0.230769230769
21.0,fast,791.950632107,1.0,cigarette,alcohol,594.0,9.0,2.0,0.222222222222
21.0,fast,791.950632107,1.0,cigarette,cigarette,594.0,9.0,6.0,0.666666666667
21.0,fast,791.950632107,1.0,cigarette,neutral,594.0,9.0,1.0,0.111111111111
22.0,fast,614.077402704,1.0,cigarette,alcohol,594.0,2.0,0.0,0.0
22.0,fast,614.077402704,1.0,cigarette,cigarette,594.0,2.0,2.0,1.0
22.0,fast,614.077402704,1.0,cigarette,neutral,594.0,2.0,0.0,0.0
23.0,fast,626.004045345,1.0,cigarette,alcohol,594.0,1.0,1.0,1.0
23.0,fast,626.004045345,1.0,cigarette,cigarette,594.0,1.0,0.0,0.0
23.0,fast,626.004045345,1.0,cigarette,neutral,594.0,1.0,0.0,0.0
24.0,fast,1260.26576809,1.0,cigarette,alcohol,594.0,10.0,5.0,0.5
24.0,fast,1260.26576809,1.0,cigarette,cigarette,594.0,10.0,4.0,0.4
24.0,fast,1260.26576809,1.0,cigarette,neutral,594.0,10.0,1.0,0.1
25.0,fast,1037.7401836,1.0,cigarette,alcohol,594.0,8.0,1.0,0.125
25.0,fast,1037.7401836,1.0,cigarette,cigarette,594.0,8.0,6.0,0.75
25.0,fast,1037.7401836,1.0,cigarette,neutral,594.0,8.0,1.0,0.125
26.0,fast,1450.23512977,1.0,cigarette,alcohol,594.0,8.0,2.0,0.25
26.0,fast,1450.23512977,1.0,cigarette,cigarette,594.0,8.0,3.0,0.375
26.0,fast,1450.23512977,1.0,cigarette,neutral,594.0,8.0,3.0,0.375
27.0,fast,1513.54420921,1.0,cigarette,alcohol,594.0,10.0,3.0,0.3
27.0,fast,1513.54420921,1.0,cigarette,cigarette,594.0,10.0,1.0,0.1
27.0,fast,1513.54420921,1.0,cigarette,neutral,594.0,10.0,6.0,0.6
28.0,fast,687.183213569,1.0,cigarette,alcohol,594.0,8.0,1.0,0.125
28.0,fast,687.183213569,1.0,cigarette,cigarette,594.0,8.0,6.0,0.75
28.0,fast,687.183213569,1.0,cigarette,neutral,594.0,8.0,1.0,0.125
29.0,fast,4039.46284367,1.0,cigarette,alcohol,594.0,25.0,7.0,0.28
29.0,fast,4039.46284367,1.0,cigarette,cigarette,594.0,25.0,8.0,0.32
29.0,fast,4039.46284367,1.0,cigarette,neutral,594.0,25.0,10.0,0.4
1.0,fast,778.052169846,1.0,neutral,alcohol,594.0,2.0,0.0,0.0
1.0,fast,778.052169846,1.0,neutral,cigarette,594.0,2.0,1.0,0.5
1.0,fast,778.052169846,1.0,neutral,neutral,594.0,2.0,1.0,0.5
2.0,fast,664.382268113,1.0,neutral,alcohol,594.0,1.0,1.0,1.0
2.0,fast,664.382268113,1.0,neutral,cigarette,594.0,1.0,0.0,0.0
2.0,fast,664.382268113,1.0,neutral,neutral,594.0,1.0,0.0,0.0
3.0,fast,,1.0,neutral,alcohol,594.0,0.0,0.0,
3.0,fast,,1.0,neutral,cigarette,594.0,0.0,0.0,
3.0,fast,,1.0,neutral,neutral,594.0,0.0,0.0,
4.0,fast,,1.0,neutral,alcohol,594.0,0.0,0.0,
4.0,fast,,1.0,neutral,cigarette,594.0,0.0,0.0,
4.0,fast,,1.0,neutral,neutral,594.0,0.0,0.0,
5.0,fast,1003.1230368,1.0,neutral,alcohol,594.0,6.0,1.0,0.166666666667
5.0,fast,1003.1230368,1.0,neutral,cigarette,594.0,6.0,2.0,0.333333333333
5.0,fast,1003.1230368,1.0,neutral,neutral,594.0,6.0,3.0,0.5
6.0,fast,2568.71568092,1.0,neutral,alcohol,594.0,1.0,0.0,0.0
6.0,fast,2568.71568092,1.0,neutral,cigarette,594.0,1.0,0.0,0.0
6.0,fast,2568.71568092,1.0,neutral,neutral,594.0,1.0,1.0,1.0
7.0,fast,,1.0,neutral,alcohol,594.0,0.0,0.0,
7.0,fast,,1.0,neutral,cigarette,594.0,0.0,0.0,
7.0,fast,,1.0,neutral,neutral,594.0,0.0,0.0,
8.0,fast,621.870629425,1.0,neutral,alcohol,594.0,2.0,0.0,0.0
8.0,fast,621.870629425,1.0,neutral,cigarette,594.0,2.0,1.0,0.5
8.0,fast,621.870629425,1.0,neutral,neutral,594.0,2.0,1.0,0.5
9.0,fast,748.195986771,1.0,neutral,alcohol,594.0,1.0,0.0,0.0
9.0,fast,748.195986771,1.0,neutral,cigarette,594.0,1.0,0.0,0.0
9.0,fast,748.195986771,1.0,neutral,neutral,594.0,1.0,1.0,1.0
10.0,fast,921.564820109,1.0,neutral,alcohol,594.0,1.0,0.0,0.0
10.0,fast,921.564820109,1.0,neutral,cigarette,594.0,1.0,1.0,1.0
10.0,fast,921.564820109,1.0,neutral,neutral,594.0,1.0,0.0,0.0
11.0,fast,,1.0,neutral,alcohol,594.0,0.0,0.0,
11.0,fast,,1.0,neutral,cigarette,594.0,0.0,0.0,
11.0,fast,,1.0,neutral,neutral,594.0,0.0,0.0,
12.0,fast,2252.46721654,1.0,neutral,alcohol,594.0,1.0,1.0,1.0
12.0,fast,2252.46721654,1.0,neutral,cigarette,594.0,1.0,0.0,0.0
12.0,fast,2252.46721654,1.0,neutral,neutral,594.0,1.0,0.0,0.0
13.0,fast,937.27906955,1.0,neutral,alcohol,594.0,23.0,5.0,0.217391304348
13.0,fast,937.27906955,1.0,neutral,cigarette,594.0,23.0,3.0,0.130434782609
13.0,fast,937.27906955,1.0,neutral,neutral,594.0,23.0,15.0,0.652173913043
14.0,fast,,1.0,neutral,alcohol,594.0,0.0,0.0,
14.0,fast,,1.0,neutral,cigarette,594.0,0.0,0.0,
14.0,fast,,1.0,neutral,neutral,594.0,0.0,0.0,
15.0,fast,,1.0,neutral,alcohol,594.0,0.0,0.0,
15.0,fast,,1.0,neutral,cigarette,594.0,0.0,0.0,
15.0,fast,,1.0,neutral,neutral,594.0,0.0,0.0,
16.0,fast,902.357194815,1.0,neutral,alcohol,594.0,2.0,0.0,0.0
16.0,fast,902.357194815,1.0,neutral,cigarette,594.0,2.0,1.0,0.5
16.0,fast,902.357194815,1.0,neutral,neutral,594.0,2.0,1.0,0.5
17.0,fast,1457.24780827,1.0,neutral,alcohol,594.0,2.0,2.0,1.0
17.0,fast,1457.24780827,1.0,neutral,cigarette,594.0,2.0,0.0,0.0
17.0,fast,1457.24780827,1.0,neutral,neutral,594.0,2.0,0.0,0.0
18.0,fast,,1.0,neutral,alcohol,594.0,0.0,0.0,
18.0,fast,,1.0,neutral,cigarette,594.0,0.0,0.0,
18.0,fast,,1.0,neutral,neutral,594.0,0.0,0.0,
19.0,fast,940.253740422,1.0,neutral,alcohol,594.0,2.0,0.0,0.0
19.0,fast,940.253740422,1.0,neutral,cigarette,594.0,2.0,1.0,0.5
19.0,fast,940.253740422,1.0,neutral,neutral,594.0,2.0,1.0,0.5
20.0,fast,1041.06714984,1.0,neutral,alcohol,594.0,3.0,0.0,0.0
20.0,fast,1041.06714984,1.0,neutral,cigarette,594.0,3.0,0.0,0.0
20.0,fast,1041.06714984,1.0,neutral,neutral,594.0,3.0,3.0,1.0
21.0,fast,593.750370583,1.0,neutral,alcohol,594.0,0.0,0.0,
21.0,fast,593.750370583,1.0,neutral,cigarette,594.0,0.0,0.0,
21.0,fast,593.750370583,1.0,neutral,neutral,594.0,0.0,0.0,
22.0,fast,777.263244123,1.0,neutral,alcohol,594.0,1.0,1.0,1.0
22.0,fast,777.263244123,1.0,neutral,cigarette,594.0,1.0,0.0,0.0
22.0,fast,777.263244123,1.0,neutral,neutral,594.0,1.0,0.0,0.0
23.0,fast,1071.73576047,1.0,neutral,alcohol,594.0,0.0,0.0,
23.0,fast,1071.73576047,1.0,neutral,cigarette,594.0,0.0,0.0,
23.0,fast,1071.73576047,1.0,neutral,neutral,594.0,0.0,0.0,
24.0,fast,956.39468444,1.0,neutral,alcohol,594.0,3.0,0.0,0.0
24.0,fast,956.39468444,1.0,neutral,cigarette,594.0,3.0,0.0,0.0
24.0,fast,956.39468444,1.0,neutral,neutral,594.0,3.0,3.0,1.0
25.0,fast,1488.34284509,1.0,neutral,alcohol,594.0,2.0,1.0,0.5
25.0,fast,1488.34284509,1.0,neutral,cigarette,594.0,2.0,0.0,0.0
25.0,fast,1488.34284509,1.0,neutral,neutral,594.0,2.0,1.0,0.5
26.0,fast,793.979708687,1.0,neutral,alcohol,594.0,19.0,0.0,0.0
26.0,fast,793.979708687,1.0,neutral,cigarette,594.0,19.0,0.0,0.0
26.0,fast,793.979708687,1.0,neutral,neutral,594.0,19.0,19.0,1.0
27.0,fast,1184.34270518,1.0,neutral,alcohol,594.0,20.0,9.0,0.45
27.0,fast,1184.34270518,1.0,neutral,cigarette,594.0,20.0,6.0,0.3
27.0,fast,1184.34270518,1.0,neutral,neutral,594.0,20.0,5.0,0.25
28.0,fast,997.060175905,1.0,neutral,alcohol,594.0,2.0,0.0,0.0
28.0,fast,997.060175905,1.0,neutral,cigarette,594.0,2.0,0.0,0.0
28.0,fast,997.060175905,1.0,neutral,neutral,594.0,2.0,2.0,1.0
29.0,fast,,1.0,neutral,alcohol,594.0,0.0,0.0,
29.0,fast,,1.0,neutral,cigarette,594.0,0.0,0.0,
29.0,fast,,1.0,neutral,neutral,594.0,0.0,0.0,
