sub_id,trial_type,time_looking_at_pref,percentage_looking_at_pref,time_looking_at_alc,percentage_looking_at_alc,time_looking_at_cig,percentage_looking_at_cig,time_looking_at_neu,percentage_looking_at_neu,response_time,last_item_looked_at,last_category_looked_at,time_last_item_looked_at,selected_item,alcohol_pref,cig_pref
cret01,1.0,2448.0,0.821476510067,0.0,0.0,225.0,0.0755033557047,2448.0,0.821476510067,2981.2388821,waterglass,neutral,2979.0,waterglass,heineken,newport
cret01,4.0,0.0,0.0,0.0,0.0,1662.0,0.898864250946,0.0,0.0,1848.89448464,americanspirit,cigarette,1848.0,waterbottle,heineken,newport
cret01,3.0,391.0,0.196285140562,1414.0,0.70983935743,0.0,0.0,391.0,0.196285140562,1991.60652547,waterbottle,neutral,1991.0,waterbottle,heineken,newport
cret01,1.0,815.0,0.764540337711,0.0,0.0,0.0,0.0,815.0,0.764540337711,1065.89179525,waterbottle,neutral,1065.0,waterbottle,heineken,newport
cret01,1.0,14.0,0.0121951219512,283.0,0.246515679443,0.0,0.0,14.0,0.0121951219512,1148.27560952,waterglass,neutral,737.0,waterglass,heineken,newport
cret01,1.0,825.0,0.794797687861,0.0,0.0,0.0,0.0,825.0,0.794797687861,1037.61860018,waterbottle,neutral,1037.0,waterbottle,heineken,newport
cret01,3.0,0.0,0.0,0.0,0.0,1023.0,0.869158878505,0.0,0.0,1177.11594644,camelcrush,cigarette,1176.0,waterglass,heineken,newport
cret01,1.0,0.0,0.0,0.0,0.0,0.0,0.0,0.0,0.0,982.071152977,none,none,-1.0,waterglass,heineken,newport
cret01,1.0,0.0,0.0,0.0,0.0,0.0,0.0,0.0,0.0,826.862258589,none,none,-1.0,waterglass,heineken,newport
cret01,1.0,1191.0,0.565795724466,309.0,0.146793349169,383.0,0.181947743468,1191.0,0.565795724466,2104.43634236,selzter,neutral,2104.0,selzter,heineken,newport
cret01,1.0,0.0,0.0,0.0,0.0,0.0,0.0,0.0,0.0,3002.61844806,none,none,-1.0,selzter,heineken,newport
cret01,2.0,1181.0,0.394719251337,1154.0,0.385695187166,382.0,0.127673796791,1181.0,0.394719251337,2991.23382239,selzter,neutral,2991.0,selzter,heineken,newport
cret01,1.0,0.0,0.0,0.0,0.0,0.0,0.0,0.0,0.0,857.827571504,none,none,-1.0,waterbottle,heineken,newport
cret01,1.0,546.0,0.753103448276,0.0,0.0,0.0,0.0,546.0,0.753103448276,724.972777904,waterglass,neutral,724.0,waterglass,heineken,newport
cret01,4.0,537.0,0.76604850214,0.0,0.0,0.0,0.0,537.0,0.76604850214,700.802809384,waterbottle,neutral,700.0,waterbottle,heineken,newport
cret01,1.0,0.0,0.0,261.0,0.206978588422,0.0,0.0,0.0,0.0,1260.30865545,heineken,alcohol,1060.0,selzter,heineken,newport
cret01,3.0,0.0,0.0,0.0,0.0,0.0,0.0,0.0,0.0,976.059314384,none,none,-1.0,waterglass,heineken,newport
cret01,1.0,335.0,0.311049210771,0.0,0.0,554.0,0.514391829155,335.0,0.311049210771,1077.05986497,waterglass,neutral,1076.0,waterglass,heineken,newport
cret01,3.0,228.0,0.256179775281,0.0,0.0,470.0,0.52808988764,228.0,0.256179775281,890.045267102,waterglass,neutral,889.0,waterglass,heineken,newport
cret01,2.0,324.0,0.358011049724,105.0,0.116022099448,0.0,0.0,324.0,0.358011049724,904.888929399,waterglass,neutral,904.0,waterglass,heineken,newport
cret01,1.0,0.0,0.0,0.0,0.0,0.0,0.0,0.0,0.0,1437.70610265,none,none,-1.0,waterbottle,heineken,newport
cret01,1.0,270.0,0.429252782194,0.0,0.0,0.0,0.0,270.0,0.429252782194,628.922561906,waterglass,neutral,472.0,waterglass,heineken,newport
cret01,3.0,210.0,0.267175572519,0.0,0.0,250.0,0.318066157761,210.0,0.267175572519,787.2143081,camelcrush,cigarette,778.0,selzter,heineken,newport
cret01,4.0,0.0,0.0,0.0,0.0,0.0,0.0,0.0,0.0,723.340796087,none,none,-1.0,waterbottle,heineken,newport
cret01,2.0,0.0,0.0,0.0,0.0,0.0,0.0,0.0,0.0,1114.75603735,none,none,-1.0,waterglass,heineken,newport
cret01,3.0,646.0,0.667355371901,0.0,0.0,0.0,0.0,646.0,0.667355371901,968.458219922,waterglass,neutral,967.0,waterglass,heineken,newport
cret01,1.0,43.0,0.0684713375796,0.0,0.0,0.0,0.0,43.0,0.0684713375796,628.00609453,waterglass,neutral,408.0,waterglass,heineken,newport
cret01,1.0,0.0,0.0,0.0,0.0,0.0,0.0,0.0,0.0,854.881419235,none,none,-1.0,waterglass,heineken,newport
cret01,2.0,14.0,0.0161290322581,0.0,0.0,0.0,0.0,14.0,0.0161290322581,868.312643644,waterbottle,neutral,862.0,waterbottle,heineken,newport
cret01,1.0,0.0,0.0,0.0,0.0,0.0,0.0,0.0,0.0,997.265049975,none,none,-1.0,waterglass,heineken,newport
cret01,4.0,0.0,0.0,0.0,0.0,218.0,0.281290322581,0.0,0.0,773.550429525,camelcrush,cigarette,774.0,waterbottle,heineken,newport
cret01,2.0,0.0,0.0,0.0,0.0,1305.0,0.875251509054,0.0,0.0,1490.40948062,newport,cigarette,1490.0,selzter,heineken,newport
cret01,2.0,0.0,0.0,0.0,0.0,0.0,0.0,0.0,0.0,849.696564857,none,none,-1.0,waterbottle,heineken,newport
cret01,1.0,0.0,0.0,0.0,0.0,0.0,0.0,0.0,0.0,763.854214783,none,none,-1.0,selzter,heineken,newport
cret01,3.0,0.0,0.0,0.0,0.0,0.0,0.0,0.0,0.0,751.042751363,none,none,-1.0,selzter,heineken,newport
cret01,1.0,0.0,0.0,0.0,0.0,0.0,0.0,0.0,0.0,641.548020723,none,none,-1.0,waterbottle,heineken,newport
cret01,1.0,0.0,0.0,0.0,0.0,0.0,0.0,0.0,0.0,782.075599289,none,none,-1.0,waterbottle,heineken,newport
cret01,4.0,0.0,0.0,0.0,0.0,0.0,0.0,0.0,0.0,1849.12066734,none,none,-1.0,selzter,heineken,newport
cret01,2.0,0.0,0.0,0.0,0.0,0.0,0.0,0.0,0.0,769.345095929,none,none,-1.0,waterbottle,heineken,newport
cret01,1.0,0.0,0.0,0.0,0.0,0.0,0.0,0.0,0.0,699.541387257,none,none,-1.0,waterglass,heineken,newport
cret01,3.0,0.0,0.0,0.0,0.0,0.0,0.0,0.0,0.0,808.792720656,none,none,-1.0,selzter,heineken,newport
cret01,2.0,0.0,0.0,0.0,0.0,0.0,0.0,0.0,0.0,676.84405088,none,none,-1.0,waterbottle,heineken,newport
cret01,1.0,0.0,0.0,0.0,0.0,0.0,0.0,0.0,0.0,739.912481293,none,none,-1.0,waterglass,heineken,newport
cret01,1.0,0.0,0.0,0.0,0.0,0.0,0.0,0.0,0.0,669.706196883,none,none,-1.0,waterbottle,heineken,newport
cret01,1.0,0.0,0.0,0.0,0.0,0.0,0.0,0.0,0.0,707.274897295,none,none,-1.0,selzter,heineken,newport
cret01,3.0,0.0,0.0,0.0,0.0,0.0,0.0,0.0,0.0,637.4493153,none,none,-1.0,waterbottle,heineken,newport
cret01,1.0,0.0,0.0,0.0,0.0,0.0,0.0,0.0,0.0,684.173254724,none,none,-1.0,waterglass,heineken,newport
cret01,1.0,0.0,0.0,0.0,0.0,0.0,0.0,0.0,0.0,603.089804683,none,none,-1.0,selzter,heineken,newport
cret01,3.0,0.0,0.0,0.0,0.0,0.0,0.0,0.0,0.0,593.089899978,none,none,-1.0,waterglass,heineken,newport
cret01,1.0,288.0,0.467532467532,0.0,0.0,0.0,0.0,288.0,0.467532467532,615.39931283,waterbottle,neutral,512.0,waterbottle,heineken,newport
cret01,2.0,0.0,0.0,0.0,0.0,0.0,0.0,0.0,0.0,714.502351273,none,none,-1.0,waterbottle,heineken,newport
cret01,1.0,0.0,0.0,0.0,0.0,0.0,0.0,0.0,0.0,546.936909535,none,none,-1.0,waterglass,heineken,newport
cret01,2.0,0.0,0.0,0.0,0.0,0.0,0.0,0.0,0.0,591.013469519,none,none,-1.0,selzter,heineken,newport
cret01,2.0,242.0,0.0870503597122,496.0,0.178417266187,0.0,0.0,242.0,0.0870503597122,2779.68404509,waterglass,neutral,2779.0,waterglass,heineken,newport
cret01,1.0,0.0,0.0,0.0,0.0,0.0,0.0,0.0,0.0,1011.81738219,none,none,-1.0,waterbottle,heineken,newport
cret01,3.0,0.0,0.0,0.0,0.0,0.0,0.0,0.0,0.0,1146.62596105,none,none,-1.0,selzter,heineken,newport
cret01,4.0,0.0,0.0,0.0,0.0,0.0,0.0,0.0,0.0,944.578627848,none,none,-1.0,waterbottle,heineken,newport
cret01,4.0,0.0,0.0,0.0,0.0,0.0,0.0,0.0,0.0,768.850091763,none,none,-1.0,waterglass,heineken,newport
cret01,3.0,0.0,0.0,0.0,0.0,0.0,0.0,0.0,0.0,640.019799461,none,none,-1.0,waterbottle,heineken,newport
cret01,3.0,0.0,0.0,0.0,0.0,0.0,0.0,0.0,0.0,1478.7979879,none,none,-1.0,selzter,heineken,newport
cret01,3.0,163.0,0.153628652215,0.0,0.0,0.0,0.0,163.0,0.153628652215,1060.3877707,waterbottle,neutral,873.0,waterbottle,heineken,newport
cret01,4.0,0.0,0.0,0.0,0.0,0.0,0.0,0.0,0.0,1270.91930641,none,none,-1.0,selzter,heineken,newport
cret01,1.0,480.0,0.399334442596,250.0,0.207986688852,211.0,0.175540765391,480.0,0.399334442596,1202.37356672,selzter,neutral,1201.0,selzter,heineken,newport
cret01,1.0,0.0,0.0,0.0,0.0,0.0,0.0,0.0,0.0,1517.43736341,none,none,-1.0,selzter,heineken,newport
cret01,2.0,0.0,0.0,0.0,0.0,0.0,0.0,0.0,0.0,701.899469888,none,none,-1.0,waterbottle,heineken,newport
cret01,3.0,0.0,0.0,0.0,0.0,0.0,0.0,0.0,0.0,1313.98011513,none,none,-1.0,selzter,heineken,newport
cret01,1.0,0.0,0.0,0.0,0.0,0.0,0.0,0.0,0.0,866.900670935,none,none,-1.0,waterglass,heineken,newport
cret01,2.0,0.0,0.0,0.0,0.0,0.0,0.0,0.0,0.0,1868.7117073,none,none,-1.0,waterbottle,heineken,newport
cret01,3.0,0.0,0.0,0.0,0.0,0.0,0.0,0.0,0.0,660.73087218,none,none,-1.0,waterbottle,heineken,newport
cret01,3.0,0.0,0.0,0.0,0.0,0.0,0.0,0.0,0.0,851.978046207,none,none,-1.0,selzter,heineken,newport
cret01,2.0,0.0,0.0,0.0,0.0,0.0,0.0,0.0,0.0,711.784733674,none,none,-1.0,selzter,heineken,newport
cret01,1.0,0.0,0.0,0.0,0.0,0.0,0.0,0.0,0.0,646.309882261,none,none,-1.0,waterglass,heineken,newport
cret01,2.0,372.0,0.603896103896,0.0,0.0,0.0,0.0,372.0,0.603896103896,615.957547576,waterbottle,neutral,615.0,waterbottle,heineken,newport
cret01,4.0,0.0,0.0,0.0,0.0,0.0,0.0,0.0,0.0,890.335568372,none,none,-1.0,selzter,heineken,newport
cret01,1.0,0.0,0.0,0.0,0.0,0.0,0.0,0.0,0.0,740.428347262,none,none,-1.0,waterglass,heineken,newport
cret01,3.0,0.0,0.0,0.0,0.0,0.0,0.0,0.0,0.0,552.548947539,none,none,-1.0,waterglass,heineken,newport
cret01,1.0,0.0,0.0,0.0,0.0,0.0,0.0,0.0,0.0,771.076910805,none,none,-1.0,selzter,heineken,newport
cret01,1.0,0.0,0.0,0.0,0.0,0.0,0.0,0.0,0.0,740.299912472,none,none,-1.0,selzter,heineken,newport
cret01,3.0,0.0,0.0,0.0,0.0,0.0,0.0,0.0,0.0,575.093603355,none,none,-1.0,waterbottle,heineken,newport
cret01,1.0,0.0,0.0,0.0,0.0,0.0,0.0,0.0,0.0,563.756518057,none,none,-1.0,waterglass,heineken,newport
cret01,4.0,0.0,0.0,0.0,0.0,0.0,0.0,0.0,0.0,784.578427732,none,none,-1.0,selzter,heineken,newport
cret01,2.0,0.0,0.0,0.0,0.0,0.0,0.0,0.0,0.0,870.29726579,none,none,-1.0,waterglass,heineken,newport
cret01,4.0,0.0,0.0,0.0,0.0,0.0,0.0,0.0,0.0,629.819724285,none,none,-1.0,waterbottle,heineken,newport
cret01,1.0,0.0,0.0,0.0,0.0,0.0,0.0,0.0,0.0,644.471187565,none,none,-1.0,waterglass,heineken,newport
cret01,1.0,0.0,0.0,0.0,0.0,0.0,0.0,0.0,0.0,657.350929991,none,none,-1.0,waterbottle,heineken,newport
cret01,4.0,0.0,0.0,0.0,0.0,0.0,0.0,0.0,0.0,1183.14158773,none,none,-1.0,selzter,heineken,newport
cret01,2.0,0.0,0.0,0.0,0.0,0.0,0.0,0.0,0.0,662.823973656,none,none,-1.0,selzter,heineken,newport
cret01,1.0,0.0,0.0,0.0,0.0,0.0,0.0,0.0,0.0,636.810210492,none,none,-1.0,waterglass,heineken,newport
cret01,1.0,0.0,0.0,0.0,0.0,0.0,0.0,0.0,0.0,608.619721816,none,none,-1.0,waterglass,heineken,newport
cret01,1.0,0.0,0.0,0.0,0.0,0.0,0.0,0.0,0.0,512.026006933,none,none,-1.0,waterglass,heineken,newport
cret01,1.0,0.0,0.0,0.0,0.0,0.0,0.0,0.0,0.0,794.412599176,none,none,-1.0,selzter,heineken,newport
cret01,1.0,0.0,0.0,0.0,0.0,0.0,0.0,0.0,0.0,673.807452284,none,none,-1.0,waterbottle,heineken,newport
cret01,1.0,0.0,0.0,0.0,0.0,0.0,0.0,0.0,0.0,695.488878222,none,none,-1.0,selzter,heineken,newport
cret01,1.0,0.0,0.0,0.0,0.0,0.0,0.0,0.0,0.0,705.924043186,none,none,-1.0,selzter,heineken,newport
cret01,4.0,0.0,0.0,0.0,0.0,0.0,0.0,0.0,0.0,719.190476324,none,none,-1.0,waterglass,heineken,newport
cret01,1.0,0.0,0.0,0.0,0.0,0.0,0.0,0.0,0.0,749.915151975,none,none,-1.0,selzter,heineken,newport
cret01,2.0,0.0,0.0,0.0,0.0,0.0,0.0,0.0,0.0,654.564022221,none,none,-1.0,waterbottle,heineken,newport
cret01,1.0,0.0,0.0,0.0,0.0,0.0,0.0,0.0,0.0,532.265709264,none,none,-1.0,waterbottle,heineken,newport
cret01,1.0,0.0,0.0,0.0,0.0,0.0,0.0,0.0,0.0,630.56328211,none,none,-1.0,waterglass,heineken,newport
cret01,3.0,0.0,0.0,0.0,0.0,0.0,0.0,0.0,0.0,700.784947554,none,none,-1.0,selzter,heineken,newport
cret01,3.0,0.0,0.0,0.0,0.0,0.0,0.0,0.0,0.0,621.123352134,none,none,-1.0,waterbottle,heineken,newport
cret01,1.0,0.0,0.0,0.0,0.0,0.0,0.0,0.0,0.0,703.86897535,none,none,-1.0,waterglass,heineken,newport
cret01,1.0,331.0,0.295799821269,0.0,0.0,472.0,0.421805183199,331.0,0.295799821269,1122.07896526,newport,cigarette,1121.0,waterbottle,heineken,newport
cret01,2.0,383.0,0.510666666667,0.0,0.0,0.0,0.0,383.0,0.510666666667,749.831353587,waterglass,neutral,749.0,waterglass,heineken,newport
cret01,2.0,0.0,0.0,0.0,0.0,0.0,0.0,0.0,0.0,622.520657806,none,none,-1.0,waterbottle,heineken,newport
cret01,1.0,0.0,0.0,0.0,0.0,0.0,0.0,0.0,0.0,1174.02140039,none,none,-1.0,selzter,heineken,newport
cret01,2.0,0.0,0.0,0.0,0.0,0.0,0.0,0.0,0.0,964.925000353,none,none,-1.0,selzter,heineken,newport
cret01,1.0,0.0,0.0,0.0,0.0,0.0,0.0,0.0,0.0,624.856510998,none,none,-1.0,waterbottle,heineken,newport
cret01,3.0,261.0,0.399693721286,0.0,0.0,0.0,0.0,261.0,0.399693721286,655.621422622,selzter,neutral,655.0,selzter,heineken,newport
cret01,4.0,0.0,0.0,0.0,0.0,0.0,0.0,0.0,0.0,1131.94808637,none,none,-1.0,waterbottle,heineken,newport
cret01,2.0,0.0,0.0,0.0,0.0,0.0,0.0,0.0,0.0,772.442371954,none,none,-1.0,waterglass,heineken,newport
cret01,1.0,552.0,0.517338331771,0.0,0.0,0.0,0.0,552.0,0.517338331771,1068.71680549,waterbottle,neutral,1068.0,waterbottle,heineken,newport
cret01,3.0,0.0,0.0,0.0,0.0,0.0,0.0,0.0,0.0,714.191884193,none,none,-1.0,waterglass,heineken,newport
cret01,3.0,0.0,0.0,0.0,0.0,0.0,0.0,0.0,0.0,676.844539699,none,none,-1.0,waterbottle,heineken,newport
cret01,1.0,0.0,0.0,0.0,0.0,0.0,0.0,0.0,0.0,662.075234703,none,none,-1.0,waterbottle,heineken,newport
cret01,3.0,0.0,0.0,0.0,0.0,0.0,0.0,0.0,0.0,850.693473472,none,none,-1.0,selzter,heineken,newport
cret01,1.0,0.0,0.0,0.0,0.0,0.0,0.0,0.0,0.0,651.203391026,none,none,-1.0,waterbottle,heineken,newport
cret01,1.0,0.0,0.0,0.0,0.0,0.0,0.0,0.0,0.0,796.849347418,none,none,-1.0,waterbottle,heineken,newport
cret01,1.0,0.0,0.0,0.0,0.0,0.0,0.0,0.0,0.0,1384.80074858,none,none,-1.0,waterbottle,heineken,newport
cret01,2.0,0.0,0.0,0.0,0.0,0.0,0.0,0.0,0.0,589.321875441,none,none,-1.0,waterglass,heineken,newport
cret01,1.0,0.0,0.0,0.0,0.0,0.0,0.0,0.0,0.0,599.510052729,none,none,-1.0,waterglass,heineken,newport
cret01,2.0,0.0,0.0,0.0,0.0,0.0,0.0,0.0,0.0,577.33397027,none,none,-1.0,waterbottle,heineken,newport
cret01,2.0,0.0,0.0,0.0,0.0,0.0,0.0,0.0,0.0,537.757082757,none,none,-1.0,waterbottle,heineken,newport
cret01,1.0,0.0,0.0,0.0,0.0,0.0,0.0,0.0,0.0,1015.42225308,none,none,-1.0,waterglass,heineken,newport
cret01,1.0,0.0,0.0,0.0,0.0,0.0,0.0,0.0,0.0,974.424968943,none,none,-1.0,selzter,heineken,newport
cret01,3.0,0.0,0.0,0.0,0.0,0.0,0.0,0.0,0.0,619.78423956,none,none,-1.0,waterbottle,heineken,newport
cret01,1.0,0.0,0.0,0.0,0.0,0.0,0.0,0.0,0.0,656.258205452,none,none,-1.0,waterbottle,heineken,newport
cret01,4.0,0.0,0.0,0.0,0.0,0.0,0.0,0.0,0.0,1042.94384088,none,none,-1.0,waterbottle,heineken,newport
cret01,1.0,0.0,0.0,0.0,0.0,0.0,0.0,0.0,0.0,749.122373438,none,none,-1.0,selzter,heineken,newport
cret01,2.0,0.0,0.0,0.0,0.0,0.0,0.0,0.0,0.0,1218.94698556,none,none,-1.0,waterbottle,heineken,newport
cret01,1.0,0.0,0.0,0.0,0.0,0.0,0.0,0.0,0.0,605.62044922,none,none,-1.0,waterbottle,heineken,newport
cret01,1.0,0.0,0.0,0.0,0.0,0.0,0.0,0.0,0.0,1316.11401022,none,none,-1.0,waterbottle,heineken,newport
cret01,1.0,0.0,0.0,0.0,0.0,0.0,0.0,0.0,0.0,774.156528996,none,none,-1.0,waterglass,heineken,newport
cret01,1.0,0.0,0.0,0.0,0.0,0.0,0.0,0.0,0.0,739.507953102,none,none,-1.0,selzter,heineken,newport
cret01,4.0,0.0,0.0,0.0,0.0,0.0,0.0,0.0,0.0,844.448504249,none,none,-1.0,selzter,heineken,newport
cret01,3.0,0.0,0.0,0.0,0.0,0.0,0.0,0.0,0.0,599.787840938,none,none,-1.0,waterbottle,heineken,newport
cret01,1.0,0.0,0.0,0.0,0.0,0.0,0.0,0.0,0.0,578.821569445,none,none,-1.0,waterbottle,heineken,newport
cret01,2.0,0.0,0.0,0.0,0.0,0.0,0.0,0.0,0.0,1325.87324837,none,none,-1.0,selzter,heineken,newport
cret01,4.0,519.0,0.597238204833,0.0,0.0,100.0,0.115074798619,519.0,0.597238204833,868.92143674,luckystrike,cigarette,868.0,waterbottle,heineken,newport
cret01,3.0,0.0,0.0,0.0,0.0,0.0,0.0,0.0,0.0,1018.62428177,none,none,-1.0,selzter,heineken,newport
cret01,3.0,194.0,0.190382728165,0.0,0.0,0.0,0.0,194.0,0.190382728165,1018.60126916,waterbottle,neutral,908.0,waterbottle,heineken,newport
cret01,1.0,1662.0,0.860693940963,0.0,0.0,0.0,0.0,1662.0,0.860693940963,1936.33436768,waterglass,neutral,1936.0,waterglass,heineken,newport
cret01,4.0,424.0,0.699669966997,0.0,0.0,0.0,0.0,424.0,0.699669966997,605.434744613,waterglass,neutral,605.0,waterglass,heineken,newport
cret01,1.0,236.0,0.208296557811,0.0,0.0,0.0,0.0,236.0,0.208296557811,1133.48456391,selzter,neutral,1132.0,selzter,heineken,newport
cret03,2.0,332.0,0.157570004746,621.0,0.294731846227,332.0,0.157570004746,513.0,0.24347413384,2107.40713176,selzter,neutral,2106.0,maverick,naturallight,maverick
cret03,1.0,889.0,0.45636550308,755.0,0.387577002053,889.0,0.45636550308,0.0,0.0,1947.33195547,naturallight,alcohol,1947.0,maverick,naturallight,maverick
cret03,1.0,410.0,0.416243654822,410.0,0.416243654822,305.0,0.309644670051,0.0,0.0,985.344501973,naturallight,alcohol,984.0,naturallight,naturallight,maverick
cret03,1.0,620.0,0.584354382658,620.0,0.584354382658,0.0,0.0,0.0,0.0,1060.45269572,naturallight,alcohol,1049.0,naturallight,naturallight,maverick
cret03,1.0,0.0,0.0,0.0,0.0,0.0,0.0,823.0,0.731555555556,1125.39777721,waterglass,neutral,1113.0,maverick,naturallight,maverick
cret03,1.0,393.0,0.504492939666,96.0,0.12323491656,0.0,0.0,393.0,0.504492939666,778.052169846,naturallight,alcohol,778.0,waterglass,naturallight,maverick
cret03,3.0,870.0,0.340109460516,870.0,0.340109460516,690.0,0.269741985927,682.0,0.266614542611,2557.33487919,naturallight,alcohol,2557.0,naturallight,naturallight,maverick
cret03,1.0,440.0,0.324244657332,415.0,0.305821665438,440.0,0.324244657332,320.0,0.235814296242,1356.86368683,maverick,cigarette,1356.0,maverick,naturallight,maverick
cret03,2.0,800.0,0.902934537246,0.0,0.0,0.0,0.0,800.0,0.902934537246,886.397443336,waterbottle,neutral,885.0,waterbottle,naturallight,maverick
cret03,1.0,511.0,1.0,0.0,0.0,0.0,0.0,511.0,1.0,510.98885289,waterglass,neutral,510.0,waterglass,naturallight,maverick
cret03,1.0,183.0,0.162522202487,183.0,0.162522202487,0.0,0.0,281.0,0.249555950266,1125.96558951,naturallight,alcohol,932.0,naturallight,naturallight,maverick
cret03,4.0,1130.0,0.535037878788,451.0,0.213541666667,1130.0,0.535037878788,9.0,0.00426136363636,2114.40074258,waterglass,neutral,1974.0,newport,naturallight,maverick
cret03,3.0,1171.0,0.775496688742,1171.0,0.775496688742,0.0,0.0,0.0,0.0,1510.30425922,naturallight,alcohol,1509.0,naturallight,naturallight,maverick
cret03,1.0,615.0,0.561131386861,39.0,0.0355839416058,615.0,0.561131386861,0.0,0.0,1095.46502305,maverick,cigarette,1095.0,maverick,naturallight,maverick
cret03,2.0,1310.0,0.608453320948,0.0,0.0,1310.0,0.608453320948,659.0,0.306084533209,2152.29312447,maverick,cigarette,2152.0,maverick,naturallight,maverick
cret03,1.0,540.0,0.744827586207,172.0,0.23724137931,540.0,0.744827586207,0.0,0.0,725.485232831,maverick,cigarette,724.0,maverick,naturallight,maverick
cret03,1.0,601.0,0.782552083333,601.0,0.782552083333,0.0,0.0,0.0,0.0,768.33402191,naturallight,alcohol,767.0,naturallight,naturallight,maverick
cret03,1.0,183.0,0.204013377926,183.0,0.204013377926,0.0,0.0,0.0,0.0,897.18877595,naturallight,alcohol,896.0,naturallight,naturallight,maverick
cret03,2.0,2001.0,1.0,2001.0,1.0,0.0,0.0,0.0,0.0,2011.65489486,budweiser,alcohol,2011.0,budweiser,naturallight,maverick
cret03,1.0,195.0,0.201446280992,0.0,0.0,0.0,0.0,195.0,0.201446280992,968.144572913,waterbottle,neutral,967.0,waterbottle,naturallight,maverick
cret03,1.0,333.0,0.406097560976,333.0,0.406097560976,0.0,0.0,124.0,0.151219512195,819.561319343,selzter,neutral,819.0,naturallight,naturallight,maverick
cret03,1.0,0.0,0.0,0.0,0.0,0.0,0.0,1202.0,0.791310072416,1518.40084104,waterbottle,neutral,1518.0,naturallight,naturallight,maverick
cret03,1.0,0.0,0.0,0.0,0.0,759.0,1.0,0.0,0.0,760.273361851,maverick,cigarette,759.0,waterglass,naturallight,maverick
cret03,1.0,0.0,0.0,0.0,0.0,302.0,0.36695018226,0.0,0.0,822.312502029,maverick,cigarette,822.0,naturallight,naturallight,maverick
cret03,4.0,249.0,0.219770520741,249.0,0.219770520741,211.0,0.186231244484,0.0,0.0,1133.66882663,heineken,alcohol,1132.0,heineken,naturallight,maverick
cret03,2.0,396.0,0.248275862069,367.0,0.230094043887,738.0,0.462695924765,396.0,0.248275862069,1594.39019546,selzter,neutral,1594.0,selzter,naturallight,maverick
cret03,1.0,1032.0,0.77072442121,1032.0,0.77072442121,0.0,0.0,0.0,0.0,1339.18603964,naturallight,alcohol,1339.0,naturallight,naturallight,maverick
cret03,3.0,300.0,0.41095890411,300.0,0.41095890411,0.0,0.0,0.0,0.0,729.753172536,naturallight,alcohol,729.0,naturallight,naturallight,maverick
cret03,3.0,330.0,0.183231538034,330.0,0.183231538034,472.0,0.262076624098,428.0,0.23764575236,1801.08042515,waterbottle,neutral,1800.0,naturallight,naturallight,maverick
cret03,3.0,204.0,0.142757172848,204.0,0.142757172848,0.0,0.0,0.0,0.0,1428.99899555,naturallight,alcohol,1428.0,naturallight,naturallight,maverick
cret03,2.0,443.0,0.305096418733,340.0,0.234159779614,443.0,0.305096418733,405.0,0.278925619835,1452.68747821,jackdaniels,alcohol,1222.0,maverick,naturallight,maverick
cret03,3.0,0.0,0.0,0.0,0.0,0.0,0.0,0.0,0.0,681.343723045,none,none,-1.0,naturallight,naturallight,maverick
cret03,2.0,0.0,0.0,0.0,0.0,0.0,0.0,206.0,0.218683651805,941.929907037,selzter,neutral,941.0,maverick,naturallight,maverick
cret03,4.0,85.0,0.108834827145,0.0,0.0,205.0,0.262483994878,85.0,0.108834827145,779.633848972,waterbottle,neutral,780.0,waterbottle,naturallight,maverick
cret03,1.0,10.0,0.00657894736842,375.0,0.246710526316,10.0,0.00657894736842,124.0,0.0815789473684,1519.34812344,waterglass,neutral,1519.0,maverick,naturallight,maverick
cret03,4.0,312.0,0.137142857143,699.0,0.307252747253,970.0,0.426373626374,312.0,0.137142857143,2274.18657363,skyy,alcohol,2274.0,waterbottle,naturallight,maverick
cret03,2.0,736.0,0.433706540955,736.0,0.433706540955,0.0,0.0,596.0,0.351208014143,1697.27629968,heineken,alcohol,1696.0,heineken,naturallight,maverick
cret03,1.0,388.0,0.452214452214,388.0,0.452214452214,0.0,0.0,0.0,0.0,857.65003,naturallight,alcohol,857.0,naturallight,naturallight,maverick
cret03,2.0,457.0,0.515801354402,418.0,0.471783295711,457.0,0.515801354402,0.0,0.0,885.037466912,maverick,cigarette,885.0,maverick,naturallight,maverick
cret03,1.0,364.0,0.42672919109,230.0,0.269636576788,364.0,0.42672919109,0.0,0.0,853.124925707,maverick,cigarette,852.0,maverick,naturallight,maverick
cret03,1.0,790.0,0.362551629188,790.0,0.362551629188,583.0,0.267553923818,404.0,0.18540614961,2179.28259076,naturallight,alcohol,2178.0,naturallight,naturallight,maverick
cret03,4.0,377.0,0.19283887468,377.0,0.19283887468,953.0,0.487468030691,513.0,0.262404092072,1954.8666522,jimbeam,alcohol,1954.0,jimbeam,naturallight,maverick
cret03,3.0,221.0,0.317528735632,221.0,0.317528735632,0.0,0.0,0.0,0.0,708.726173687,naturallight,alcohol,453.0,naturallight,naturallight,maverick
cret03,1.0,0.0,0.0,0.0,0.0,268.0,0.116319444444,0.0,0.0,2303.79672511,maverick,cigarette,1493.0,naturallight,naturallight,maverick
cret03,1.0,0.0,0.0,0.0,0.0,0.0,0.0,0.0,0.0,722.395946537,none,none,-1.0,waterglass,naturallight,maverick
cret03,1.0,0.0,0.0,0.0,0.0,0.0,0.0,0.0,0.0,652.245807128,none,none,-1.0,waterbottle,naturallight,maverick
cret03,3.0,0.0,0.0,0.0,0.0,129.0,0.207062600321,0.0,0.0,622.588838419,luckystrike,cigarette,622.0,naturallight,naturallight,maverick
cret03,1.0,0.0,0.0,0.0,0.0,0.0,0.0,41.0,0.0369369369369,1109.63207688,selzter,neutral,817.0,naturallight,naturallight,maverick
cret03,1.0,0.0,0.0,0.0,0.0,0.0,0.0,0.0,0.0,839.554232048,none,none,-1.0,naturallight,naturallight,maverick
cret03,4.0,19.0,0.00876788186433,19.0,0.00876788186433,0.0,0.0,0.0,0.0,2167.00915126,josecuervo,alcohol,1993.0,josecuervo,naturallight,maverick
cret03,1.0,0.0,0.0,0.0,0.0,0.0,0.0,189.0,0.118198874296,1598.26070171,waterbottle,neutral,889.0,naturallight,naturallight,maverick
cret03,2.0,0.0,0.0,0.0,0.0,0.0,0.0,0.0,0.0,909.77985939,none,none,-1.0,waterbottle,naturallight,maverick
cret03,1.0,0.0,0.0,0.0,0.0,0.0,0.0,0.0,0.0,1742.94429868,none,none,-1.0,naturallight,naturallight,maverick
cret03,1.0,0.0,0.0,333.0,0.426923076923,0.0,0.0,0.0,0.0,780.350528344,naturallight,alcohol,779.0,selzter,naturallight,maverick
cret03,1.0,0.0,0.0,0.0,0.0,0.0,0.0,0.0,0.0,1841.0028916,none,none,-1.0,naturallight,naturallight,maverick
cret03,1.0,0.0,0.0,0.0,0.0,0.0,0.0,0.0,0.0,966.984075204,none,none,-1.0,maverick,naturallight,maverick
cret03,1.0,0.0,0.0,0.0,0.0,0.0,0.0,0.0,0.0,724.744140214,none,none,-1.0,naturallight,naturallight,maverick
cret03,2.0,439.0,0.312233285917,411.0,0.292318634424,337.0,0.239687055477,439.0,0.312233285917,1405.92747037,waterbottle,neutral,1405.0,waterbottle,naturallight,maverick
cret03,3.0,920.0,0.518018018018,920.0,0.518018018018,0.0,0.0,414.0,0.233108108108,1775.68913736,naturallight,alcohol,1775.0,naturallight,naturallight,maverick
cret03,1.0,1414.0,0.664161578206,1414.0,0.664161578206,0.0,0.0,0.0,0.0,2129.50104469,naturallight,alcohol,2128.0,naturallight,naturallight,maverick
cret03,1.0,500.0,0.643500643501,0.0,0.0,500.0,0.643500643501,0.0,0.0,777.700896809,maverick,cigarette,776.0,maverick,naturallight,maverick
cret03,1.0,432.0,0.687898089172,432.0,0.687898089172,0.0,0.0,0.0,0.0,627.850208938,naturallight,alcohol,627.0,naturallight,naturallight,maverick
cret03,2.0,447.0,0.610655737705,0.0,0.0,447.0,0.610655737705,4.0,0.00546448087432,731.464356352,waterglass,neutral,731.0,maverick,naturallight,maverick
cret03,1.0,396.0,0.541723666211,396.0,0.541723666211,0.0,0.0,0.0,0.0,730.226828734,naturallight,alcohol,730.0,naturallight,naturallight,maverick
cret03,1.0,165.0,0.341614906832,0.0,0.0,165.0,0.341614906832,0.0,0.0,482.725397228,maverick,cigarette,482.0,maverick,naturallight,maverick
cret03,1.0,0.0,0.0,0.0,0.0,0.0,0.0,0.0,0.0,1122.76447141,none,none,-1.0,naturallight,naturallight,maverick
cret03,1.0,13.0,0.00943396226415,13.0,0.00943396226415,0.0,0.0,0.0,0.0,1377.71677502,naturallight,alcohol,1377.0,naturallight,naturallight,maverick
cret03,1.0,0.0,0.0,0.0,0.0,0.0,0.0,0.0,0.0,779.291299437,none,none,-1.0,maverick,naturallight,maverick
cret03,1.0,0.0,0.0,0.0,0.0,0.0,0.0,0.0,0.0,471.394037863,none,none,-1.0,naturallight,naturallight,maverick
cret03,1.0,0.0,0.0,0.0,0.0,0.0,0.0,0.0,0.0,406.379606689,none,none,-1.0,naturallight,naturallight,maverick
cret03,2.0,0.0,0.0,390.0,0.457209847597,0.0,0.0,0.0,0.0,852.651611503,josecuervo,alcohol,852.0,maverick,naturallight,maverick
cret03,4.0,0.0,0.0,0.0,0.0,0.0,0.0,0.0,0.0,842.310517827,none,none,-1.0,waterbottle,naturallight,maverick
cret03,2.0,0.0,0.0,0.0,0.0,0.0,0.0,0.0,0.0,531.589348411,none,none,-1.0,waterbottle,naturallight,maverick
cret03,1.0,600.0,0.472440944882,600.0,0.472440944882,0.0,0.0,360.0,0.283464566929,1270.44007193,naturallight,alcohol,1269.0,naturallight,naturallight,maverick
cret03,2.0,0.0,0.0,996.0,0.649282920469,0.0,0.0,204.0,0.132985658409,1533.58528612,bacardi,alcohol,1533.0,maverick,naturallight,maverick
cret03,4.0,605.0,0.578947368421,204.0,0.195215311005,0.0,0.0,605.0,0.578947368421,1044.86015254,selzter,neutral,1044.0,selzter,naturallight,maverick
cret04,1.0,1252.0,0.973561430793,1252.0,0.973561430793,0.0,0.0,0.0,0.0,1286.05934806,kahlua,alcohol,1261.0,kahlua,kahlua,marlboro
cret04,2.0,347.0,0.288445552785,416.0,0.345802161264,347.0,0.288445552785,191.0,0.158769742311,1202.13841291,marlboro,cigarette,1202.0,marlboro,kahlua,marlboro
cret04,4.0,607.0,0.396214099217,525.0,0.342689295039,172.0,0.11227154047,607.0,0.396214099217,1532.06489128,waterbottle,neutral,1531.0,waterbottle,kahlua,marlboro
cret04,1.0,272.0,0.283628779979,190.0,0.198123044838,272.0,0.283628779979,192.0,0.200208550574,958.446277755,kahlua,alcohol,958.0,marlboro,kahlua,marlboro
cret04,1.0,379.0,0.352558139535,379.0,0.352558139535,491.0,0.456744186047,0.0,0.0,1075.13589648,kahlua,alcohol,1074.0,kahlua,kahlua,marlboro
cret04,1.0,419.0,0.530379746835,419.0,0.530379746835,104.0,0.13164556962,0.0,0.0,790.24122935,kahlua,alcohol,789.0,kahlua,kahlua,marlboro
cret04,1.0,817.0,1.0,817.0,1.0,0.0,0.0,0.0,0.0,817.495054653,kahlua,alcohol,816.0,kahlua,kahlua,marlboro
cret04,1.0,485.0,0.444139194139,485.0,0.444139194139,108.0,0.0989010989011,223.0,0.204212454212,1092.29136647,marlboro,cigarette,1091.0,kahlua,kahlua,marlboro
cret04,3.0,445.0,0.653450807636,445.0,0.653450807636,0.0,0.0,0.0,0.0,680.538615854,kahlua,alcohol,680.0,kahlua,kahlua,marlboro
cret04,3.0,520.0,0.509803921569,520.0,0.509803921569,309.0,0.302941176471,0.0,0.0,1020.36275813,kahlua,alcohol,1019.0,kahlua,kahlua,marlboro
cret04,1.0,303.0,0.174740484429,978.0,0.56401384083,303.0,0.174740484429,0.0,0.0,1736.51930422,kahlua,alcohol,1736.0,marlboro,kahlua,marlboro
cret04,3.0,463.0,0.567401960784,463.0,0.567401960784,145.0,0.177696078431,0.0,0.0,816.488366503,luckystrike,cigarette,815.0,kahlua,kahlua,marlboro
cret04,3.0,486.0,0.717872968981,486.0,0.717872968981,0.0,0.0,0.0,0.0,676.571020376,kahlua,alcohol,676.0,kahlua,kahlua,marlboro
cret04,1.0,347.0,0.585160202361,347.0,0.585160202361,0.0,0.0,0.0,0.0,592.992665977,kahlua,alcohol,592.0,kahlua,kahlua,marlboro
cret04,1.0,531.0,0.580962800875,531.0,0.580962800875,0.0,0.0,375.0,0.410284463895,912.910413042,kahlua,alcohol,913.0,kahlua,kahlua,marlboro
cret04,1.0,357.0,0.543378995434,0.0,0.0,357.0,0.543378995434,0.0,0.0,656.453874713,marlboro,cigarette,656.0,marlboro,kahlua,marlboro
cret04,1.0,264.0,0.355795148248,264.0,0.355795148248,201.0,0.270889487871,0.0,0.0,741.208528712,kahlua,alcohol,741.0,kahlua,kahlua,marlboro
cret04,1.0,439.0,0.55923566879,439.0,0.55923566879,0.0,0.0,158.0,0.20127388535,785.078640982,kahlua,alcohol,785.0,kahlua,kahlua,marlboro
cret04,2.0,310.0,0.31124497992,215.0,0.215863453815,310.0,0.31124497992,226.0,0.226907630522,995.705411224,marlboro,cigarette,995.0,marlboro,kahlua,marlboro
cret04,3.0,293.0,0.33257661748,293.0,0.33257661748,308.0,0.349602724177,0.0,0.0,880.613139831,kahlua,alcohol,880.0,kahlua,kahlua,marlboro
cret04,3.0,260.0,0.25974025974,260.0,0.25974025974,219.0,0.218781218781,209.0,0.208791208791,1001.23019973,camelcrush,cigarette,1000.0,kahlua,kahlua,marlboro
cret04,1.0,313.0,0.40861618799,313.0,0.40861618799,187.0,0.244125326371,0.0,0.0,765.429954436,kahlua,alcohol,765.0,kahlua,kahlua,marlboro
cret04,2.0,248.0,0.235741444867,550.0,0.522813688213,248.0,0.235741444867,224.0,0.212927756654,1053.10506958,marlboro,cigarette,1053.0,marlboro,kahlua,marlboro
cret04,4.0,499.0,0.300060132291,297.0,0.17859290439,499.0,0.300060132291,663.0,0.398677089597,1663.13045031,waterglass,neutral,1662.0,newport,kahlua,marlboro
cret04,1.0,234.0,0.351879699248,0.0,0.0,234.0,0.351879699248,214.0,0.321804511278,665.583449743,marlboro,cigarette,664.0,marlboro,kahlua,marlboro
cret04,3.0,431.0,0.605337078652,431.0,0.605337078652,44.0,0.061797752809,0.0,0.0,711.434226028,newport,cigarette,711.0,kahlua,kahlua,marlboro
cret04,3.0,328.0,0.42542153048,328.0,0.42542153048,14.0,0.0181582360571,408.0,0.529182879377,771.031391947,luckystrike,cigarette,770.0,kahlua,kahlua,marlboro
cret04,1.0,670.0,0.604147880974,670.0,0.604147880974,143.0,0.128944995491,0.0,0.0,1108.82993044,kahlua,alcohol,1108.0,kahlua,kahlua,marlboro
cret04,4.0,200.0,0.235017626322,277.0,0.325499412456,200.0,0.235017626322,361.0,0.424206815511,851.532122173,luckystrike,cigarette,850.0,luckystrike,kahlua,marlboro
cret04,2.0,265.0,0.252621544328,366.0,0.348903717827,265.0,0.252621544328,188.0,0.179218303146,1048.54662257,newamsterdam,alcohol,1048.0,marlboro,kahlua,marlboro
cret04,2.0,257.0,0.260385005066,464.0,0.470111448835,257.0,0.260385005066,0.0,0.0,986.971405429,naturallight,alcohol,986.0,marlboro,kahlua,marlboro
cret04,1.0,243.0,0.383886255924,243.0,0.383886255924,177.0,0.279620853081,0.0,0.0,633.435391424,kahlua,alcohol,632.0,kahlua,kahlua,marlboro
cret04,1.0,262.0,0.380813953488,262.0,0.380813953488,149.0,0.216569767442,0.0,0.0,688.046993862,kahlua,alcohol,687.0,kahlua,kahlua,marlboro
cret04,1.0,433.0,0.560155239327,433.0,0.560155239327,64.0,0.0827943078913,0.0,0.0,772.400919048,marlboro,cigarette,772.0,kahlua,kahlua,marlboro
cret04,1.0,222.0,0.173166926677,222.0,0.173166926677,295.0,0.230109204368,219.0,0.170826833073,1281.16890099,waterbottle,neutral,983.0,kahlua,kahlua,marlboro
cret04,2.0,584.0,0.410400562193,247.0,0.173576950105,584.0,0.410400562193,323.0,0.226985242446,1422.8148491,marlboro,cigarette,1422.0,marlboro,kahlua,marlboro
cret04,4.0,365.0,0.202890494719,331.0,0.18399110617,826.0,0.459143968872,365.0,0.202890494719,1798.8761196,waterglass,neutral,1798.0,waterglass,kahlua,marlboro
cret04,2.0,206.0,0.216386554622,238.0,0.25,206.0,0.216386554622,245.0,0.257352941176,951.104688764,marlboro,cigarette,951.0,marlboro,kahlua,marlboro
cret04,1.0,385.0,0.39406345957,385.0,0.39406345957,253.0,0.258955987718,116.0,0.118730808598,976.79527312,selzter,neutral,976.0,kahlua,kahlua,marlboro
cret04,1.0,441.0,0.580263157895,441.0,0.580263157895,0.0,0.0,98.0,0.128947368421,759.623085583,waterbottle,neutral,759.0,kahlua,kahlua,marlboro
cret04,4.0,409.0,0.222888283379,1030.0,0.561307901907,356.0,0.194005449591,409.0,0.222888283379,1834.83822904,waterglass,neutral,1834.0,waterglass,kahlua,marlboro
cret04,1.0,410.0,0.37037037037,410.0,0.37037037037,256.0,0.23125564589,164.0,0.148148148148,1106.58091354,waterglass,neutral,1106.0,kahlua,kahlua,marlboro
cret04,1.0,334.0,0.350840336134,334.0,0.350840336134,451.0,0.473739495798,142.0,0.149159663866,951.471151668,kahlua,alcohol,951.0,kahlua,kahlua,marlboro
cret04,3.0,449.0,0.713831478537,449.0,0.713831478537,0.0,0.0,0.0,0.0,627.958005483,kahlua,alcohol,628.0,kahlua,kahlua,marlboro
cret04,2.0,624.0,0.468117029257,340.0,0.255063765941,624.0,0.468117029257,337.0,0.252813203301,1333.00964929,marlboro,cigarette,1332.0,marlboro,kahlua,marlboro
cret04,1.0,541.0,0.755586592179,167.0,0.233240223464,541.0,0.755586592179,0.0,0.0,715.881590826,kahlua,alcohol,715.0,marlboro,kahlua,marlboro
cret04,1.0,296.0,0.276119402985,296.0,0.276119402985,246.0,0.22947761194,513.0,0.478544776119,1071.65438471,kahlua,alcohol,1071.0,kahlua,kahlua,marlboro
cret04,2.0,347.0,0.392978482446,312.0,0.353340883352,347.0,0.392978482446,0.0,0.0,882.793865609,marlboro,cigarette,882.0,marlboro,kahlua,marlboro
cret04,1.0,408.0,0.538969616909,408.0,0.538969616909,111.0,0.146631439894,0.0,0.0,757.006057451,marlboro,cigarette,756.0,kahlua,kahlua,marlboro
cret04,1.0,678.0,1.0,678.0,1.0,0.0,0.0,0.0,0.0,677.714833573,kahlua,alcohol,677.0,kahlua,kahlua,marlboro
cret04,1.0,536.0,0.538152610442,536.0,0.538152610442,447.0,0.448795180723,0.0,0.0,996.261463204,kahlua,alcohol,995.0,kahlua,kahlua,marlboro
cret04,1.0,437.0,0.496027241771,437.0,0.496027241771,177.0,0.200908059024,0.0,0.0,880.877214413,kahlua,alcohol,880.0,kahlua,kahlua,marlboro
cret04,3.0,248.0,0.522105263158,248.0,0.522105263158,0.0,0.0,0.0,0.0,474.916674842,kahlua,alcohol,474.0,kahlua,kahlua,marlboro
cret04,1.0,472.0,0.687045123726,472.0,0.687045123726,0.0,0.0,0.0,0.0,685.975592669,kahlua,alcohol,686.0,kahlua,kahlua,marlboro
cret04,2.0,252.0,0.202572347267,403.0,0.323954983923,252.0,0.202572347267,230.0,0.184887459807,1243.34580482,sutter,alcohol,1243.0,marlboro,kahlua,marlboro
cret04,3.0,402.0,0.629107981221,402.0,0.629107981221,0.0,0.0,0.0,0.0,638.957755958,kahlua,alcohol,638.0,kahlua,kahlua,marlboro
cret04,1.0,389.0,0.515231788079,389.0,0.515231788079,146.0,0.193377483444,0.0,0.0,754.645276826,kahlua,alcohol,754.0,kahlua,kahlua,marlboro
cret04,1.0,537.0,0.604049493813,537.0,0.604049493813,344.0,0.386951631046,0.0,0.0,888.208771534,kahlua,alcohol,888.0,kahlua,kahlua,marlboro
cret04,1.0,265.0,0.376955903272,231.0,0.328591749644,265.0,0.376955903272,0.0,0.0,702.681434475,marlboro,cigarette,702.0,marlboro,kahlua,marlboro
cret04,2.0,275.0,0.244879786287,329.0,0.292965271594,275.0,0.244879786287,285.0,0.253784505788,1123.57297282,marlboro,cigarette,1122.0,marlboro,kahlua,marlboro
cret04,1.0,726.0,0.452054794521,726.0,0.452054794521,619.0,0.385429638854,0.0,0.0,1607.60197574,marlboro,cigarette,1607.0,kahlua,kahlua,marlboro
cret04,1.0,413.0,0.534282018111,413.0,0.534282018111,160.0,0.206985769728,0.0,0.0,772.598112848,kahlua,alcohol,772.0,kahlua,kahlua,marlboro
cret04,4.0,178.0,0.215235792019,308.0,0.372430471584,178.0,0.215235792019,108.0,0.130592503023,826.899888119,waterglass,neutral,826.0,newport,kahlua,marlboro
cret04,4.0,420.0,0.298295454545,295.0,0.209517045455,445.0,0.316051136364,420.0,0.298295454545,1406.90579381,luckystrike,cigarette,1407.0,waterbottle,kahlua,marlboro
cret04,3.0,422.0,0.614264919942,422.0,0.614264919942,0.0,0.0,11.0,0.0160116448326,687.278757803,selzter,neutral,686.0,kahlua,kahlua,marlboro
cret04,3.0,356.0,0.445556946183,356.0,0.445556946183,97.0,0.12140175219,152.0,0.190237797247,798.883964326,camelcrush,cigarette,798.0,kahlua,kahlua,marlboro
cret04,2.0,397.0,0.333333333333,198.0,0.166246851385,397.0,0.333333333333,584.0,0.490344248531,1189.96796324,marlboro,cigarette,1190.0,marlboro,kahlua,marlboro
cret04,1.0,476.0,0.50158061117,476.0,0.50158061117,248.0,0.261327713383,0.0,0.0,948.30898259,kahlua,alcohol,948.0,kahlua,kahlua,marlboro
cret04,1.0,349.0,0.390380313199,349.0,0.390380313199,313.0,0.350111856823,0.0,0.0,893.944430132,marlboro,cigarette,893.0,kahlua,kahlua,marlboro
cret04,3.0,394.0,0.58543833581,394.0,0.58543833581,0.0,0.0,0.0,0.0,673.02924821,kahlua,alcohol,672.0,kahlua,kahlua,marlboro
cret04,3.0,547.0,1.0,547.0,1.0,0.0,0.0,0.0,0.0,546.710998917,kahlua,alcohol,546.0,kahlua,kahlua,marlboro
cret04,3.0,261.0,0.423701298701,261.0,0.423701298701,0.0,0.0,173.0,0.280844155844,615.502157854,kahlua,alcohol,615.0,kahlua,kahlua,marlboro
cret04,2.0,230.0,0.265895953757,175.0,0.202312138728,230.0,0.265895953757,293.0,0.338728323699,864.63773457,marlboro,cigarette,864.0,marlboro,kahlua,marlboro
cret04,1.0,348.0,0.432298136646,348.0,0.432298136646,240.0,0.298136645963,0.0,0.0,805.195259001,kahlua,alcohol,804.0,kahlua,kahlua,marlboro
cret04,2.0,223.0,0.310584958217,268.0,0.373259052925,223.0,0.310584958217,0.0,0.0,718.140333243,marlboro,cigarette,717.0,marlboro,kahlua,marlboro
cret04,1.0,315.0,0.587686567164,315.0,0.587686567164,0.0,0.0,0.0,0.0,535.606192625,kahlua,alcohol,535.0,kahlua,kahlua,marlboro
cret04,4.0,702.0,0.40206185567,417.0,0.23883161512,702.0,0.40206185567,394.0,0.225658648339,1744.89646499,camelcrush,cigarette,1745.0,camelcrush,kahlua,marlboro
cret04,1.0,500.0,0.578703703704,500.0,0.578703703704,0.0,0.0,128.0,0.148148148148,864.36928922,waterglass,neutral,863.0,kahlua,kahlua,marlboro
cret04,4.0,328.0,0.251340996169,392.0,0.300383141762,328.0,0.251340996169,293.0,0.224521072797,1304.52361675,newport,cigarette,1304.0,newport,kahlua,marlboro
cret04,1.0,0.0,0.0,418.0,0.52380952381,0.0,0.0,0.0,0.0,797.975726078,kahlua,alcohol,797.0,marlboro,kahlua,marlboro
cret04,2.0,354.0,0.422434367542,354.0,0.422434367542,294.0,0.350835322196,0.0,0.0,837.749388536,skyy,alcohol,837.0,skyy,kahlua,marlboro
cret04,2.0,311.0,0.364595545135,311.0,0.364595545135,343.0,0.402110199297,0.0,0.0,853.474839854,heineken,alcohol,852.0,heineken,kahlua,marlboro
cret04,3.0,362.0,0.517882689557,362.0,0.517882689557,0.0,0.0,119.0,0.170243204578,698.562397782,kahlua,alcohol,698.0,kahlua,kahlua,marlboro
cret04,2.0,678.0,0.572151898734,205.0,0.172995780591,678.0,0.572151898734,276.0,0.232911392405,1184.7706805,marlboro,cigarette,1184.0,marlboro,kahlua,marlboro
cret04,1.0,307.0,0.414864864865,307.0,0.414864864865,367.0,0.495945945946,50.0,0.0675675675676,739.235844241,selzter,neutral,739.0,kahlua,kahlua,marlboro
cret04,2.0,219.0,0.249430523918,433.0,0.493166287016,219.0,0.249430523918,0.0,0.0,877.131160067,newamsterdam,alcohol,877.0,marlboro,kahlua,marlboro
cret04,3.0,296.0,0.57253384913,296.0,0.57253384913,0.0,0.0,0.0,0.0,517.07739441,kahlua,alcohol,516.0,kahlua,kahlua,marlboro
cret04,3.0,249.0,0.513402061856,249.0,0.513402061856,0.0,0.0,0.0,0.0,484.572635061,kahlua,alcohol,484.0,kahlua,kahlua,marlboro
cret04,1.0,467.0,0.499465240642,467.0,0.499465240642,118.0,0.126203208556,330.0,0.352941176471,933.932181819,kahlua,alcohol,934.0,kahlua,kahlua,marlboro
cret04,4.0,300.0,0.355029585799,300.0,0.355029585799,262.0,0.310059171598,30.0,0.0355029585799,844.337855277,selzter,neutral,844.0,sutter,kahlua,marlboro
cret04,1.0,0.0,0.0,358.0,0.476063829787,0.0,0.0,0.0,0.0,751.626463894,kahlua,alcohol,666.0,marlboro,kahlua,marlboro
cret04,1.0,242.0,0.517094017094,242.0,0.517094017094,0.0,0.0,0.0,0.0,467.247634089,kahlua,alcohol,467.0,kahlua,kahlua,marlboro
cret04,2.0,602.0,0.551282051282,299.0,0.27380952381,602.0,0.551282051282,0.0,0.0,1091.82758729,marlboro,cigarette,1091.0,marlboro,kahlua,marlboro
cret04,1.0,375.0,0.627090301003,375.0,0.627090301003,0.0,0.0,0.0,0.0,597.670151446,kahlua,alcohol,597.0,kahlua,kahlua,marlboro
cret04,1.0,346.0,0.500723589001,346.0,0.500723589001,335.0,0.48480463097,0.0,0.0,691.191345994,kahlua,alcohol,690.0,kahlua,kahlua,marlboro
cret04,2.0,85.0,0.101553166069,344.0,0.410991636798,85.0,0.101553166069,122.0,0.145758661888,837.706411094,selzter,neutral,836.0,marlboro,kahlua,marlboro
cret04,2.0,434.0,0.402971216342,297.0,0.275766016713,434.0,0.402971216342,117.0,0.108635097493,1077.72408298,selzter,neutral,1077.0,marlboro,kahlua,marlboro
cret04,3.0,273.0,0.542743538767,273.0,0.542743538767,0.0,0.0,0.0,0.0,502.153628364,kahlua,alcohol,502.0,kahlua,kahlua,marlboro
cret04,1.0,362.0,0.621993127148,362.0,0.621993127148,0.0,0.0,0.0,0.0,581.728306928,kahlua,alcohol,581.0,kahlua,kahlua,marlboro
cret04,1.0,246.0,0.399350649351,246.0,0.399350649351,4.0,0.00649350649351,171.0,0.277597402597,615.380107434,marlboro,cigarette,615.0,kahlua,kahlua,marlboro
cret04,1.0,254.0,0.558241758242,254.0,0.558241758242,0.0,0.0,0.0,0.0,454.768587935,kahlua,alcohol,454.0,kahlua,kahlua,marlboro
cret04,1.0,285.0,0.631929046563,285.0,0.631929046563,0.0,0.0,0.0,0.0,451.187701923,kahlua,alcohol,450.0,kahlua,kahlua,marlboro
cret04,4.0,433.0,0.237912087912,914.0,0.502197802198,433.0,0.237912087912,442.0,0.242857142857,1820.3519265,selzter,neutral,1819.0,luckystrike,kahlua,marlboro
cret04,1.0,297.0,0.31935483871,297.0,0.31935483871,416.0,0.447311827957,123.0,0.132258064516,930.160846623,selzter,neutral,929.0,kahlua,kahlua,marlboro
cret04,4.0,295.0,0.245016611296,426.0,0.353820598007,295.0,0.245016611296,256.0,0.212624584718,1204.06886711,newport,cigarette,1203.0,newport,kahlua,marlboro
cret04,1.0,379.0,0.358223062382,379.0,0.358223062382,241.0,0.227788279773,200.0,0.189035916824,1057.71265313,selzter,neutral,1057.0,kahlua,kahlua,marlboro
cret04,1.0,550.0,1.0,550.0,1.0,0.0,0.0,0.0,0.0,550.281102715,kahlua,alcohol,549.0,kahlua,kahlua,marlboro
cret04,3.0,533.0,0.784977908689,533.0,0.784977908689,0.0,0.0,136.0,0.20029455081,677.974003394,waterglass,neutral,676.0,kahlua,kahlua,marlboro
cret04,3.0,390.0,0.501930501931,390.0,0.501930501931,175.0,0.225225225225,0.0,0.0,777.371911892,kahlua,alcohol,776.0,kahlua,kahlua,marlboro
cret04,1.0,0.0,0.0,419.0,0.631024096386,0.0,0.0,0.0,0.0,664.382268113,kahlua,alcohol,663.0,waterbottle,kahlua,marlboro
cret04,1.0,440.0,0.715447154472,440.0,0.715447154472,0.0,0.0,0.0,0.0,615.27703759,kahlua,alcohol,614.0,kahlua,kahlua,marlboro
cret04,1.0,347.0,0.410165484634,347.0,0.410165484634,232.0,0.274231678487,91.0,0.10756501182,845.827228,waterglass,neutral,845.0,kahlua,kahlua,marlboro
cret04,1.0,314.0,0.33909287257,314.0,0.33909287257,0.0,0.0,363.0,0.392008639309,925.473461286,kahlua,alcohol,925.0,kahlua,kahlua,marlboro
cret04,4.0,387.0,0.322231473772,369.0,0.307243963364,387.0,0.322231473772,423.0,0.352206494588,1200.41319524,newport,cigarette,1200.0,newport,kahlua,marlboro
cret04,1.0,853.0,0.828960155491,853.0,0.828960155491,0.0,0.0,0.0,0.0,1028.6372214,kahlua,alcohol,1028.0,kahlua,kahlua,marlboro
cret04,1.0,449.0,0.831481481481,449.0,0.831481481481,0.0,0.0,0.0,0.0,540.097392504,kahlua,alcohol,539.0,kahlua,kahlua,marlboro
cret04,3.0,419.0,0.652647975078,419.0,0.652647975078,0.0,0.0,0.0,0.0,642.077850758,kahlua,alcohol,641.0,kahlua,kahlua,marlboro
cret04,3.0,400.0,0.42735042735,400.0,0.42735042735,227.0,0.242521367521,295.0,0.315170940171,935.895707584,kahlua,alcohol,935.0,kahlua,kahlua,marlboro
cret04,1.0,455.0,0.52,455.0,0.52,407.0,0.465142857143,0.0,0.0,874.589871779,kahlua,alcohol,874.0,kahlua,kahlua,marlboro
cret04,2.0,308.0,0.446376811594,136.0,0.197101449275,308.0,0.446376811594,0.0,0.0,690.064038936,marlboro,cigarette,689.0,marlboro,kahlua,marlboro
cret04,3.0,384.0,0.333622936577,384.0,0.333622936577,265.0,0.230234578627,282.0,0.245004344049,1150.90959388,kahlua,alcohol,1150.0,kahlua,kahlua,marlboro
cret04,3.0,282.0,0.586278586279,282.0,0.586278586279,0.0,0.0,0.0,0.0,480.460945093,kahlua,alcohol,480.0,kahlua,kahlua,marlboro
cret04,2.0,148.0,0.116078431373,438.0,0.343529411765,148.0,0.116078431373,455.0,0.356862745098,1276.67396351,marlboro,cigarette,1276.0,marlboro,kahlua,marlboro
cret04,1.0,247.0,0.288551401869,130.0,0.151869158879,247.0,0.288551401869,239.0,0.279205607477,855.518272589,kahlua,alcohol,855.0,marlboro,kahlua,marlboro
cret04,2.0,568.0,0.466338259442,144.0,0.118226600985,568.0,0.466338259442,262.0,0.215106732348,1216.89193716,selzter,neutral,1217.0,marlboro,kahlua,marlboro
cret04,4.0,644.0,0.4375,382.0,0.259510869565,644.0,0.4375,424.0,0.288043478261,1487.83730681,maverick,cigarette,1487.0,maverick,kahlua,marlboro
cret04,1.0,567.0,0.49649737303,567.0,0.49649737303,260.0,0.227670753065,298.0,0.260945709282,1142.44948136,kahlua,alcohol,1141.0,kahlua,kahlua,marlboro
cret04,3.0,353.0,0.658582089552,353.0,0.658582089552,30.0,0.0559701492537,0.0,0.0,541.38238105,kahlua,alcohol,541.0,kahlua,kahlua,marlboro
cret04,1.0,491.0,0.700427960057,491.0,0.700427960057,0.0,0.0,0.0,0.0,701.052938726,kahlua,alcohol,700.0,kahlua,kahlua,marlboro
cret04,4.0,407.0,0.299044819985,334.0,0.245407788391,407.0,0.299044819985,466.0,0.342395297575,1360.78571383,newport,cigarette,1360.0,newport,kahlua,marlboro
cret04,3.0,320.0,0.289069557362,320.0,0.289069557362,468.0,0.422764227642,276.0,0.249322493225,1107.37627525,kahlua,alcohol,1106.0,kahlua,kahlua,marlboro
cret04,2.0,282.0,0.284274193548,269.0,0.271169354839,282.0,0.284274193548,413.0,0.416330645161,994.492782094,marlboro,cigarette,993.0,marlboro,kahlua,marlboro
cret04,1.0,387.0,0.596302003082,387.0,0.596302003082,0.0,0.0,67.0,0.103235747304,648.69068318,kahlua,alcohol,648.0,kahlua,kahlua,marlboro
cret04,1.0,252.0,0.49900990099,252.0,0.49900990099,0.0,0.0,0.0,0.0,504.733451333,kahlua,alcohol,504.0,kahlua,kahlua,marlboro
cret04,2.0,0.0,0.0,490.0,0.457089552239,0.0,0.0,386.0,0.360074626866,1071.53807621,selzter,neutral,1071.0,marlboro,kahlua,marlboro
cret04,4.0,420.0,0.385674931129,259.0,0.237832874197,420.0,0.385674931129,123.0,0.112947658402,1088.17866569,selzter,neutral,1088.0,americanspirit,kahlua,marlboro
cret04,2.0,211.0,0.201143946616,483.0,0.460438512869,211.0,0.201143946616,120.0,0.114394661582,1048.65579716,waterglass,neutral,1048.0,marlboro,kahlua,marlboro
cret04,1.0,141.0,0.207352941176,257.0,0.377941176471,141.0,0.207352941176,0.0,0.0,679.989140141,marlboro,cigarette,679.0,marlboro,kahlua,marlboro
cret04,3.0,475.0,0.533707865169,475.0,0.533707865169,5.0,0.00561797752809,214.0,0.240449438202,890.059591582,americanspirit,cigarette,889.0,kahlua,kahlua,marlboro
cret04,1.0,421.0,0.687908496732,421.0,0.687908496732,0.0,0.0,0.0,0.0,611.839400079,kahlua,alcohol,611.0,kahlua,kahlua,marlboro
cret04,2.0,319.0,0.33864118896,369.0,0.391719745223,319.0,0.33864118896,224.0,0.237791932059,941.457011262,marlboro,cigarette,941.0,marlboro,kahlua,marlboro
cret04,1.0,677.0,0.820606060606,677.0,0.820606060606,0.0,0.0,67.0,0.0812121212121,824.788212271,selzter,neutral,824.0,kahlua,kahlua,marlboro
cret04,1.0,565.0,1.0,565.0,1.0,0.0,0.0,0.0,0.0,565.630052906,kahlua,alcohol,564.0,kahlua,kahlua,marlboro
cret04,1.0,645.0,0.778985507246,645.0,0.778985507246,0.0,0.0,160.0,0.193236714976,829.818670347,waterglass,neutral,817.0,kahlua,kahlua,marlboro
cret04,1.0,428.0,0.553686934023,428.0,0.553686934023,0.0,0.0,262.0,0.33893919793,772.892159866,kahlua,alcohol,772.0,kahlua,kahlua,marlboro
cret04,1.0,431.0,0.509456264775,431.0,0.509456264775,0.0,0.0,408.0,0.482269503546,846.759471935,kahlua,alcohol,845.0,kahlua,kahlua,marlboro
cret04,1.0,339.0,0.436855670103,170.0,0.219072164948,339.0,0.436855670103,0.0,0.0,775.160529687,kahlua,alcohol,775.0,marlboro,kahlua,marlboro
cret04,1.0,362.0,0.449131513648,362.0,0.449131513648,434.0,0.538461538462,0.0,0.0,805.878952977,kahlua,alcohol,805.0,kahlua,kahlua,marlboro
cret04,1.0,315.0,0.417218543046,315.0,0.417218543046,213.0,0.282119205298,0.0,0.0,755.351482863,kahlua,alcohol,755.0,kahlua,kahlua,marlboro
cret05,1.0,672.0,0.68501529052,66.0,0.0672782874618,672.0,0.68501529052,0.0,0.0,980.240943181,skyy,alcohol,980.0,newport,skyy,newport
cret05,1.0,254.0,0.15011820331,650.0,0.384160756501,254.0,0.15011820331,556.0,0.328605200946,1691.89188499,waterbottle,neutral,1691.0,newport,skyy,newport
cret05,3.0,1398.0,0.38554881412,1398.0,0.38554881412,483.0,0.133204633205,1443.0,0.397959183673,3642.67335736,skyy,alcohol,3643.0,skyy,skyy,newport
cret05,4.0,1211.0,0.485176282051,1211.0,0.485176282051,687.0,0.275240384615,288.0,0.115384615385,2498.54532309,newamsterdam,alcohol,2498.0,newamsterdam,skyy,newport
cret05,2.0,0.0,0.0,452.0,0.477296726505,0.0,0.0,317.0,0.334741288279,957.539905202,selzter,neutral,957.0,newport,skyy,newport
cret05,1.0,249.0,0.273927392739,236.0,0.259625962596,249.0,0.273927392739,236.0,0.259625962596,908.550851806,selzter,neutral,908.0,newport,skyy,newport
cret05,3.0,508.0,0.302021403092,508.0,0.302021403092,336.0,0.199762187872,649.0,0.385850178359,1681.88286152,selzter,neutral,1681.0,skyy,skyy,newport
cret05,3.0,342.0,0.361522198732,342.0,0.361522198732,223.0,0.235729386892,223.0,0.235729386892,945.93331451,americanspirit,cigarette,945.0,skyy,skyy,newport
cret05,4.0,496.0,0.215464813206,666.0,0.289313640313,984.0,0.427454387489,496.0,0.215464813206,2307.95069899,waterglass,neutral,2307.0,waterglass,skyy,newport
cret05,1.0,379.0,0.171415649028,1230.0,0.55630936228,379.0,0.171415649028,410.0,0.185436454093,2211.80041399,skyy,alcohol,2211.0,newport,skyy,newport
cret05,1.0,281.0,0.370712401055,314.0,0.414248021108,281.0,0.370712401055,116.0,0.153034300792,757.227530273,waterbottle,neutral,757.0,newport,skyy,newport
cret05,1.0,272.0,0.281573498965,583.0,0.603519668737,272.0,0.281573498965,0.0,0.0,965.220222772,skyy,alcohol,965.0,newport,skyy,newport
cret05,1.0,319.0,0.225920679887,898.0,0.63597733711,319.0,0.225920679887,0.0,0.0,1412.58117238,newport,cigarette,1411.0,newport,skyy,newport
cret05,1.0,170.0,0.153568202349,418.0,0.377597109304,170.0,0.153568202349,301.0,0.271906052394,1107.13669527,selzter,neutral,1106.0,newport,skyy,newport
cret05,1.0,229.0,0.222546161322,315.0,0.30612244898,229.0,0.222546161322,321.0,0.31195335277,1029.47580248,selzter,neutral,1028.0,newport,skyy,newport
cret05,2.0,1075.0,0.398886827458,348.0,0.129128014842,1075.0,0.398886827458,1077.0,0.399628942486,2694.1964329,newport,cigarette,2694.0,newport,skyy,newport
cret05,2.0,1302.0,0.35009411132,1302.0,0.35009411132,732.0,0.19682710406,1512.0,0.406560903469,3718.31798764,bacardi,alcohol,3718.0,bacardi,skyy,newport
cret05,4.0,418.0,0.175704077343,1496.0,0.628835645229,303.0,0.12736443884,418.0,0.175704077343,2379.27034859,sutter,alcohol,2378.0,waterglass,skyy,newport
cret05,3.0,307.0,0.25102207686,307.0,0.25102207686,512.0,0.41864268193,203.0,0.165985282093,1229.37782162,selzter,neutral,1229.0,skyy,skyy,newport
cret05,1.0,684.0,0.280098280098,400.0,0.1638001638,684.0,0.280098280098,1168.0,0.478296478296,2442.3361461,selzter,neutral,2441.0,newport,skyy,newport
cret05,4.0,1047.0,0.622103386809,1047.0,0.622103386809,306.0,0.181818181818,78.0,0.0463458110517,1697.68141237,selzter,neutral,1697.0,greygoose,skyy,newport
cret05,1.0,515.0,0.38318452381,515.0,0.38318452381,215.0,0.159970238095,429.0,0.319196428571,1343.51551251,newport,cigarette,1343.0,skyy,skyy,newport
cret05,1.0,608.0,0.434907010014,608.0,0.434907010014,252.0,0.18025751073,367.0,0.26251788269,1397.79171734,skyy,alcohol,1397.0,skyy,skyy,newport
cret05,4.0,555.0,0.189355168884,739.0,0.252132378028,1469.0,0.501194131696,555.0,0.189355168884,2939.71002262,selzter,neutral,2939.0,selzter,skyy,newport
cret05,3.0,384.0,0.363636363636,384.0,0.363636363636,293.0,0.277462121212,221.0,0.20928030303,1055.85099898,waterglass,neutral,1055.0,skyy,skyy,newport
cret05,1.0,824.0,0.497885196375,824.0,0.497885196375,273.0,0.164954682779,327.0,0.197583081571,1654.78101038,newport,cigarette,1654.0,skyy,skyy,newport
cret05,3.0,460.0,0.345864661654,460.0,0.345864661654,260.0,0.195488721805,423.0,0.318045112782,1330.46089561,waterbottle,neutral,1329.0,skyy,skyy,newport
cret05,3.0,361.0,0.318061674009,361.0,0.318061674009,219.0,0.19295154185,361.0,0.318061674009,1134.87578448,waterbottle,neutral,1134.0,skyy,skyy,newport
cret05,1.0,375.0,0.339366515837,375.0,0.339366515837,257.0,0.23257918552,306.0,0.276923076923,1113.85611088,newport,cigarette,1113.0,skyy,skyy,newport
cret05,1.0,312.0,0.368358913813,312.0,0.368358913813,189.0,0.223140495868,149.0,0.175914994097,847.543303957,waterglass,neutral,846.0,skyy,skyy,newport
cret05,3.0,226.0,0.256235827664,226.0,0.256235827664,317.0,0.359410430839,214.0,0.242630385488,881.967654647,selzter,neutral,881.0,skyy,skyy,newport
cret05,2.0,295.0,0.228859581071,489.0,0.379363847944,295.0,0.228859581071,348.0,0.269976726144,1289.69652607,newport,cigarette,1289.0,newport,skyy,newport
cret05,2.0,187.0,0.2,273.0,0.291978609626,187.0,0.2,265.0,0.283422459893,934.956554869,captainmorgan,alcohol,934.0,newport,skyy,newport
cret05,1.0,470.0,0.344827586207,365.0,0.267791636097,470.0,0.344827586207,265.0,0.194424064563,1363.18968338,newport,cigarette,1357.0,newport,skyy,newport
cret05,2.0,415.0,0.342691990091,414.0,0.341866226259,415.0,0.342691990091,154.0,0.127167630058,1210.67952523,newport,cigarette,1210.0,newport,skyy,newport
cret05,4.0,1101.0,0.436212361331,1101.0,0.436212361331,313.0,0.124009508716,971.0,0.38470681458,2523.86628667,greygoose,alcohol,2523.0,greygoose,skyy,newport
cret05,1.0,783.0,0.54375,783.0,0.54375,239.0,0.165972222222,247.0,0.171527777778,1448.90317394,skyy,alcohol,1448.0,skyy,skyy,newport
cret05,3.0,408.0,0.315057915058,408.0,0.315057915058,295.0,0.227799227799,370.0,0.285714285714,1306.81491888,selzter,neutral,1306.0,skyy,skyy,newport
cret05,1.0,317.0,0.414921465969,317.0,0.414921465969,48.0,0.0628272251309,183.0,0.239528795812,764.003953921,newport,cigarette,763.0,skyy,skyy,newport
cret05,1.0,617.0,0.5,617.0,0.5,229.0,0.185575364668,224.0,0.18152350081,1233.91559969,waterglass,neutral,1233.0,skyy,skyy,newport
cret05,3.0,259.0,0.263479145473,259.0,0.263479145473,384.0,0.390640895219,159.0,0.161749745677,982.374626507,maverick,cigarette,982.0,skyy,skyy,newport
cret05,2.0,546.0,0.605321507761,546.0,0.605321507761,0.0,0.0,214.0,0.237250554324,901.365197873,selzter,neutral,901.0,greygoose,skyy,newport
cret05,1.0,317.0,0.404336734694,317.0,0.404336734694,99.0,0.126275510204,214.0,0.272959183673,783.337172433,newport,cigarette,783.0,skyy,skyy,newport
cret05,3.0,333.0,0.404126213592,333.0,0.404126213592,201.0,0.243932038835,100.0,0.121359223301,823.600083998,waterglass,neutral,823.0,skyy,skyy,newport
cret05,1.0,226.0,0.296587926509,226.0,0.296587926509,304.0,0.398950131234,0.0,0.0,762.256156053,newport,cigarette,761.0,skyy,skyy,newport
cret05,2.0,397.0,0.395024875622,450.0,0.44776119403,397.0,0.395024875622,0.0,0.0,1004.5437783,newport,cigarette,1004.0,newport,skyy,newport
cret05,1.0,389.0,0.528532608696,0.0,0.0,389.0,0.528532608696,200.0,0.271739130435,735.726879463,newport,cigarette,735.0,newport,skyy,newport
cret05,4.0,379.0,0.358223062382,379.0,0.358223062382,0.0,0.0,396.0,0.374291115312,1056.84180999,waterbottle,neutral,1057.0,greygoose,skyy,newport
cret05,2.0,450.0,0.35685963521,411.0,0.325931800159,450.0,0.35685963521,236.0,0.187153053132,1260.49328613,newport,cigarette,1260.0,newport,skyy,newport
cret05,1.0,337.0,0.28510998308,337.0,0.28510998308,0.0,0.0,574.0,0.485617597293,1182.11833563,selzter,neutral,1181.0,skyy,skyy,newport
cret05,1.0,215.0,0.370689655172,215.0,0.370689655172,14.0,0.0241379310345,134.0,0.231034482759,583.73933839,newport,cigarette,583.0,skyy,skyy,newport
cret05,1.0,199.0,0.294814814815,199.0,0.294814814815,167.0,0.247407407407,155.0,0.22962962963,674.718548453,waterglass,neutral,674.0,skyy,skyy,newport
cret05,3.0,584.0,0.817927170868,584.0,0.817927170868,119.0,0.166666666667,0.0,0.0,714.015197696,maverick,cigarette,713.0,skyy,skyy,newport
cret05,1.0,208.0,0.443496801706,208.0,0.443496801706,92.0,0.196162046908,0.0,0.0,468.369256615,newport,cigarette,468.0,skyy,skyy,newport
cret05,3.0,174.0,0.332695984704,174.0,0.332695984704,34.0,0.0650095602294,146.0,0.279158699809,523.240823184,americanspirit,cigarette,522.0,skyy,skyy,newport
cret05,2.0,995.0,0.930776426567,995.0,0.930776426567,0.0,0.0,0.0,0.0,1074.6698746,newamsterdam,alcohol,1073.0,newamsterdam,skyy,newport
cret05,2.0,1190.0,1.0,1190.0,1.0,0.0,0.0,0.0,0.0,1197.33601728,smirnoff,alcohol,1197.0,smirnoff,skyy,newport
cret05,3.0,546.0,0.574736842105,546.0,0.574736842105,58.0,0.0610526315789,212.0,0.223157894737,949.31484688,americanspirit,cigarette,949.0,skyy,skyy,newport
cret05,3.0,260.0,0.249520153551,260.0,0.249520153551,500.0,0.479846449136,233.0,0.223608445298,1041.93506648,selzter,neutral,1041.0,skyy,skyy,newport
cret05,4.0,648.0,0.454736842105,413.0,0.289824561404,220.0,0.154385964912,648.0,0.454736842105,1424.3898542,selzter,neutral,1424.0,selzter,skyy,newport
cret05,2.0,674.0,0.510606060606,167.0,0.126515151515,674.0,0.510606060606,268.0,0.20303030303,1320.15749403,newport,cigarette,1319.0,newport,skyy,newport
cret05,4.0,628.0,0.300191204589,433.0,0.206978967495,819.0,0.391491395793,628.0,0.300191204589,2096.89019302,americanspirit,cigarette,2096.0,waterbottle,skyy,newport
cret05,1.0,251.0,0.31974522293,251.0,0.31974522293,371.0,0.472611464968,0.0,0.0,784.76665549,newport,cigarette,784.0,skyy,skyy,newport
cret05,1.0,282.0,0.339350180505,282.0,0.339350180505,191.0,0.229843561974,340.0,0.409145607702,830.360673963,newport,cigarette,830.0,skyy,skyy,newport
cret05,1.0,336.0,0.489082969432,336.0,0.489082969432,0.0,0.0,201.0,0.292576419214,687.003566752,waterbottle,neutral,686.0,skyy,skyy,newport
cret05,3.0,193.0,0.251629726206,193.0,0.251629726206,194.0,0.252933507171,197.0,0.256844850065,766.885336293,skyy,alcohol,766.0,skyy,skyy,newport
cret05,4.0,510.0,0.427135678392,310.0,0.259631490787,204.0,0.170854271357,510.0,0.427135678392,1193.55753603,waterbottle,neutral,1193.0,waterbottle,skyy,newport
cret05,2.0,500.0,0.291545189504,443.0,0.258309037901,633.0,0.369096209913,500.0,0.291545189504,1714.58344351,newport,cigarette,1714.0,selzter,skyy,newport
cret05,1.0,327.0,0.34133611691,0.0,0.0,327.0,0.34133611691,479.0,0.5,957.449694183,waterglass,neutral,957.0,newport,skyy,newport
cret05,1.0,153.0,0.2,0.0,0.0,153.0,0.2,343.0,0.448366013072,771.451548146,waterbottle,neutral,770.0,newport,skyy,newport
cret05,1.0,149.0,0.199197860963,349.0,0.466577540107,149.0,0.199197860963,0.0,0.0,749.627866619,skyy,alcohol,749.0,newport,skyy,newport
cret05,1.0,521.0,0.586711711712,521.0,0.586711711712,176.0,0.198198198198,0.0,0.0,887.278838423,skyy,alcohol,887.0,skyy,skyy,newport
cret05,3.0,390.0,0.418454935622,390.0,0.418454935622,90.0,0.0965665236052,227.0,0.24356223176,931.092472974,camelcrush,cigarette,931.0,skyy,skyy,newport
cret05,1.0,425.0,0.474330357143,425.0,0.474330357143,304.0,0.339285714286,0.0,0.0,899.764642707,newport,cigarette,899.0,skyy,skyy,newport
cret05,3.0,246.0,0.4,246.0,0.4,63.0,0.10243902439,170.0,0.276422764228,614.49248815,luckystrike,cigarette,614.0,skyy,skyy,newport
cret05,1.0,368.0,0.511111111111,368.0,0.511111111111,192.0,0.266666666667,0.0,0.0,720.10680104,skyy,alcohol,719.0,skyy,skyy,newport
cret05,1.0,323.0,0.5,323.0,0.5,120.0,0.185758513932,0.0,0.0,645.641849163,skyy,alcohol,645.0,skyy,skyy,newport
cret05,3.0,170.0,0.23097826087,170.0,0.23097826087,245.0,0.332880434783,112.0,0.152173913043,736.109461811,marlboro,cigarette,735.0,skyy,skyy,newport
cret05,1.0,0.0,0.0,355.0,0.515239477504,0.0,0.0,136.0,0.197387518142,689.534238139,skyy,alcohol,688.0,newport,skyy,newport
cret05,4.0,560.0,0.646651270208,560.0,0.646651270208,0.0,0.0,172.0,0.198614318707,865.92919824,bacardi,alcohol,865.0,bacardi,skyy,newport
cret05,1.0,375.0,0.466417910448,235.0,0.292288557214,375.0,0.466417910448,0.0,0.0,803.408201836,newport,cigarette,803.0,newport,skyy,newport
cret05,4.0,342.0,0.243416370107,457.0,0.325266903915,374.0,0.266192170819,342.0,0.243416370107,1405.49173534,naturallight,alcohol,1404.0,waterglass,skyy,newport
cret05,1.0,398.0,0.407369498465,266.0,0.272262026612,398.0,0.407369498465,143.0,0.14636642784,987.512233755,waterbottle,neutral,986.0,newport,skyy,newport
cret05,4.0,303.0,0.238394964595,503.0,0.395751376869,149.0,0.117230527144,303.0,0.238394964595,1271.37005178,josecuervo,alcohol,1270.0,selzter,skyy,newport
cret05,1.0,758.0,0.806382978723,758.0,0.806382978723,0.0,0.0,0.0,0.0,948.159278815,skyy,alcohol,948.0,skyy,skyy,newport
cret05,1.0,367.0,0.448655256724,265.0,0.323960880196,367.0,0.448655256724,4.0,0.00488997555012,817.658867646,waterbottle,neutral,817.0,newport,skyy,newport
cret05,1.0,512.0,0.587155963303,512.0,0.587155963303,129.0,0.147935779817,0.0,0.0,876.562428751,skyy,alcohol,876.0,skyy,skyy,newport
cret05,2.0,154.0,0.236559139785,187.0,0.287250384025,154.0,0.236559139785,0.0,0.0,650.955858883,naturallight,alcohol,650.0,newport,skyy,newport
cret05,1.0,371.0,0.488157894737,131.0,0.172368421053,371.0,0.488157894737,0.0,0.0,759.768587805,skyy,alcohol,759.0,newport,skyy,newport
cret05,3.0,282.0,0.482876712329,282.0,0.482876712329,0.0,0.0,168.0,0.287671232877,582.824632684,selzter,neutral,583.0,skyy,skyy,newport
cret05,1.0,353.0,0.493706293706,353.0,0.493706293706,167.0,0.233566433566,0.0,0.0,714.775643664,skyy,alcohol,714.0,skyy,skyy,newport
cret05,4.0,513.0,0.369330453564,287.0,0.206623470122,301.0,0.216702663787,513.0,0.369330453564,1388.44872503,waterglass,neutral,1388.0,waterglass,skyy,newport
cret05,1.0,221.0,0.389770723104,221.0,0.389770723104,131.0,0.231040564374,0.0,0.0,567.083389156,newport,cigarette,566.0,skyy,skyy,newport
cret05,3.0,357.0,0.453621346887,357.0,0.453621346887,158.0,0.200762388818,69.0,0.0876747141042,787.299907178,waterbottle,neutral,786.0,skyy,skyy,newport
cret05,2.0,353.0,0.390486725664,146.0,0.161504424779,353.0,0.390486725664,174.0,0.192477876106,904.289722205,josecuervo,alcohol,903.0,newport,skyy,newport
cret05,1.0,272.0,0.488330341113,272.0,0.488330341113,121.0,0.21723518851,0.0,0.0,556.380968381,newport,cigarette,556.0,skyy,skyy,newport
cret05,3.0,176.0,0.32,176.0,0.32,128.0,0.232727272727,0.0,0.0,554.187418252,marlboro,cigarette,553.0,skyy,skyy,newport
cret05,1.0,237.0,0.408620689655,237.0,0.408620689655,0.0,0.0,165.0,0.284482758621,580.309641807,skyy,alcohol,579.0,skyy,skyy,newport
cret05,4.0,480.0,0.237623762376,743.0,0.367821782178,603.0,0.298514851485,480.0,0.237623762376,2019.31029897,luckystrike,cigarette,2019.0,selzter,skyy,newport
cret05,3.0,241.0,0.347763347763,0.0,0.0,228.0,0.329004329004,241.0,0.347763347763,692.579792404,americanspirit,cigarette,692.0,waterglass,skyy,newport
cret05,2.0,515.0,0.532024793388,191.0,0.197314049587,515.0,0.532024793388,87.0,0.0898760330579,968.576405295,selzter,neutral,967.0,newport,skyy,newport
cret05,1.0,380.0,0.512129380054,380.0,0.512129380054,150.0,0.202156334232,0.0,0.0,742.148446207,skyy,alcohol,741.0,skyy,skyy,newport
cret05,2.0,0.0,0.0,296.0,0.412256267409,0.0,0.0,0.0,0.0,717.799574008,corona,alcohol,717.0,newport,skyy,newport
cret05,1.0,467.0,0.710806697108,467.0,0.710806697108,0.0,0.0,0.0,0.0,657.052688123,skyy,alcohol,656.0,skyy,skyy,newport
cret05,2.0,101.0,0.13969571231,453.0,0.626556016598,101.0,0.13969571231,0.0,0.0,721.991626991,newport,cigarette,722.0,newport,skyy,newport
cret05,1.0,232.0,0.382207578254,232.0,0.382207578254,122.0,0.200988467875,0.0,0.0,607.18698026,newport,cigarette,606.0,skyy,skyy,newport
cret05,2.0,272.0,0.324970131422,0.0,0.0,272.0,0.324970131422,317.0,0.378733572282,841.459074818,selzter,neutral,841.0,newport,skyy,newport
cret05,2.0,244.0,0.325333333333,0.0,0.0,244.0,0.325333333333,158.0,0.210666666667,749.822922365,selzter,neutral,749.0,newport,skyy,newport
cret05,1.0,416.0,0.5312899106,416.0,0.5312899106,184.0,0.234993614304,0.0,0.0,783.103987097,skyy,alcohol,782.0,skyy,skyy,newport
cret05,2.0,260.0,0.332480818414,332.0,0.424552429668,260.0,0.332480818414,0.0,0.0,782.172958541,newport,cigarette,781.0,newport,skyy,newport
cret05,3.0,283.0,0.458670988655,283.0,0.458670988655,156.0,0.2528363047,0.0,0.0,616.975229672,skyy,alcohol,616.0,skyy,skyy,newport
cret05,1.0,283.0,0.271853986551,539.0,0.517771373679,283.0,0.271853986551,0.0,0.0,1040.56391355,skyy,alcohol,1040.0,newport,skyy,newport
cret05,2.0,0.0,0.0,232.0,0.281553398058,0.0,0.0,410.0,0.497572815534,824.199942825,waterglass,neutral,823.0,newport,skyy,newport
cret05,1.0,291.0,0.480991735537,291.0,0.480991735537,181.0,0.299173553719,0.0,0.0,604.654700906,skyy,alcohol,604.0,skyy,skyy,newport
cret05,2.0,432.0,0.455696202532,432.0,0.455696202532,343.0,0.361814345992,0.0,0.0,957.692761321,smirnoff,alcohol,956.0,smirnoff,skyy,newport
cret05,1.0,414.0,0.734042553191,414.0,0.734042553191,0.0,0.0,0.0,0.0,563.681670367,skyy,alcohol,563.0,skyy,skyy,newport
cret05,3.0,175.0,0.405092592593,175.0,0.405092592593,0.0,0.0,70.0,0.162037037037,434.01680284,waterbottle,neutral,433.0,skyy,skyy,newport
cret05,1.0,165.0,0.384615384615,165.0,0.384615384615,96.0,0.223776223776,0.0,0.0,428.920396416,newport,cigarette,428.0,skyy,skyy,newport
cret05,4.0,431.0,0.369639794168,162.0,0.138936535163,386.0,0.331046312178,431.0,0.369639794168,1166.13697126,maverick,cigarette,1165.0,waterglass,skyy,newport
cret05,1.0,215.0,0.336463223787,241.0,0.377151799687,215.0,0.336463223787,0.0,0.0,638.778304434,skyy,alcohol,638.0,newport,skyy,newport
cret05,4.0,332.0,0.437994722955,0.0,0.0,66.0,0.0870712401055,332.0,0.437994722955,757.854544909,selzter,neutral,757.0,selzter,skyy,newport
cret05,2.0,141.0,0.178255372946,268.0,0.338811630847,141.0,0.178255372946,0.0,0.0,791.031472194,jimbeam,alcohol,790.0,newport,skyy,newport
cret05,3.0,586.0,0.489148580968,586.0,0.489148580968,239.0,0.199499165275,176.0,0.146911519199,1197.38608345,skyy,alcohol,1197.0,skyy,skyy,newport
cret05,1.0,502.0,0.704067321178,502.0,0.704067321178,0.0,0.0,0.0,0.0,712.378604428,skyy,alcohol,712.0,skyy,skyy,newport
cret05,1.0,204.0,0.385633270321,204.0,0.385633270321,0.0,0.0,124.0,0.234404536862,528.714297714,waterbottle,neutral,528.0,skyy,skyy,newport
cret05,1.0,458.0,0.476091476091,458.0,0.476091476091,0.0,0.0,284.0,0.295218295218,961.193078962,skyy,alcohol,961.0,skyy,skyy,newport
cret05,1.0,426.0,0.682692307692,426.0,0.682692307692,0.0,0.0,0.0,0.0,623.339230039,skyy,alcohol,623.0,skyy,skyy,newport
cret05,3.0,180.0,0.32667876588,180.0,0.32667876588,180.0,0.32667876588,0.0,0.0,559.394423288,skyy,alcohol,559.0,skyy,skyy,newport
cret05,3.0,181.0,0.337057728119,181.0,0.337057728119,0.0,0.0,162.0,0.301675977654,536.74748305,selzter,neutral,536.0,skyy,skyy,newport
cret05,2.0,158.0,0.170442286947,203.0,0.218985976268,158.0,0.170442286947,382.0,0.412081984898,928.940196372,waterglass,neutral,928.0,newport,skyy,newport
cret05,2.0,0.0,0.0,0.0,0.0,0.0,0.0,150.0,0.240384615385,623.781250375,waterglass,neutral,623.0,newport,skyy,newport
cret05,2.0,160.0,0.258899676375,207.0,0.334951456311,160.0,0.258899676375,0.0,0.0,616.939374389,corona,alcohol,617.0,newport,skyy,newport
cret05,1.0,453.0,0.525522041763,453.0,0.525522041763,191.0,0.221577726218,0.0,0.0,861.747159057,skyy,alcohol,853.0,skyy,skyy,newport
cret05,4.0,482.0,0.50103950104,482.0,0.50103950104,155.0,0.161122661123,82.0,0.0852390852391,961.601787964,selzter,neutral,961.0,greygoose,skyy,newport
cret05,1.0,296.0,0.445112781955,296.0,0.445112781955,358.0,0.538345864662,0.0,0.0,664.723465531,skyy,alcohol,664.0,skyy,skyy,newport
cret05,3.0,342.0,0.578680203046,342.0,0.578680203046,0.0,0.0,42.0,0.0710659898477,590.200663163,waterbottle,neutral,590.0,skyy,skyy,newport
cret05,4.0,363.0,0.306070826307,254.0,0.214165261383,434.0,0.365935919056,363.0,0.306070826307,1185.82278154,waterglass,neutral,1185.0,waterglass,skyy,newport
cret05,1.0,421.0,0.594632768362,0.0,0.0,421.0,0.594632768362,86.0,0.121468926554,707.42548749,selzter,neutral,707.0,newport,skyy,newport
cret05,3.0,236.0,0.411149825784,236.0,0.411149825784,137.0,0.238675958188,0.0,0.0,574.303524753,americanspirit,cigarette,573.0,skyy,skyy,newport
cret05,1.0,338.0,0.548701298701,338.0,0.548701298701,171.0,0.277597402597,0.0,0.0,615.691768165,skyy,alcohol,615.0,skyy,skyy,newport
cret05,2.0,1030.0,0.959031657356,1030.0,0.959031657356,0.0,0.0,0.0,0.0,1074.35097216,newamsterdam,alcohol,1073.0,newamsterdam,skyy,newport
cret05,1.0,529.0,0.617990654206,529.0,0.617990654206,170.0,0.198598130841,0.0,0.0,855.931379372,skyy,alcohol,855.0,skyy,skyy,newport
cret05,4.0,770.0,0.704483074108,770.0,0.704483074108,185.0,0.169258920403,0.0,0.0,1092.44014837,newamsterdam,alcohol,1092.0,newamsterdam,skyy,newport
cret05,1.0,442.0,0.671732522796,442.0,0.671732522796,0.0,0.0,0.0,0.0,658.280458391,skyy,alcohol,657.0,skyy,skyy,newport
cret05,3.0,348.0,0.620320855615,348.0,0.620320855615,0.0,0.0,0.0,0.0,560.821722742,skyy,alcohol,560.0,skyy,skyy,newport
cret05,1.0,285.0,0.461912479741,285.0,0.461912479741,147.0,0.238249594814,0.0,0.0,617.308297834,newport,cigarette,616.0,skyy,skyy,newport
cret05,1.0,275.0,0.446428571429,275.0,0.446428571429,194.0,0.314935064935,0.0,0.0,615.587937418,skyy,alcohol,615.0,skyy,skyy,newport
cret05,1.0,319.0,0.468428781204,319.0,0.468428781204,175.0,0.256975036711,0.0,0.0,680.531346196,newport,cigarette,680.0,skyy,skyy,newport
cret05,1.0,329.0,0.534959349593,329.0,0.534959349593,163.0,0.265040650407,0.0,0.0,615.520306418,skyy,alcohol,614.0,skyy,skyy,newport
cret05,2.0,373.0,0.373,373.0,0.373,193.0,0.193,226.0,0.226,999.983209512,smirnoff,alcohol,999.0,smirnoff,skyy,newport
cret05,3.0,251.0,0.435008665511,251.0,0.435008665511,172.0,0.298093587522,0.0,0.0,576.249661007,skyy,alcohol,576.0,skyy,skyy,newport
cret06,1.0,391.0,0.717431192661,391.0,0.717431192661,0.0,0.0,0.0,0.0,545.856051981,brandy,alcohol,544.0,brandy,brandy,newport
cret06,1.0,432.0,0.894409937888,432.0,0.894409937888,0.0,0.0,0.0,0.0,482.853105313,brandy,alcohol,482.0,brandy,brandy,newport
cret06,1.0,205.0,0.346869712352,205.0,0.346869712352,0.0,0.0,207.0,0.350253807107,591.162005668,brandy,alcohol,590.0,brandy,brandy,newport
cret06,1.0,370.0,0.652557319224,370.0,0.652557319224,0.0,0.0,0.0,0.0,566.379845555,brandy,alcohol,566.0,brandy,brandy,newport
cret06,1.0,0.0,0.0,0.0,0.0,258.0,0.591743119266,0.0,0.0,435.609062706,newport,cigarette,435.0,brandy,brandy,newport
cret06,1.0,241.0,0.610126582278,241.0,0.610126582278,0.0,0.0,0.0,0.0,395.491043881,brandy,alcohol,394.0,brandy,brandy,newport
cret06,1.0,280.0,0.448717948718,280.0,0.448717948718,171.0,0.274038461538,0.0,0.0,623.184512082,brandy,alcohol,623.0,brandy,brandy,newport
cret06,1.0,298.0,0.615702479339,298.0,0.615702479339,0.0,0.0,0.0,0.0,483.915283567,brandy,alcohol,483.0,brandy,brandy,newport
cret06,1.0,217.0,0.557840616967,217.0,0.557840616967,0.0,0.0,0.0,0.0,388.343048384,brandy,alcohol,388.0,brandy,brandy,newport
cret06,1.0,278.0,0.434375,278.0,0.434375,175.0,0.2734375,0.0,0.0,640.359428172,brandy,alcohol,639.0,brandy,brandy,newport
cret06,1.0,279.0,0.611842105263,279.0,0.611842105263,0.0,0.0,0.0,0.0,456.080881776,brandy,alcohol,455.0,brandy,brandy,newport
cret06,1.0,234.0,0.512035010941,234.0,0.512035010941,0.0,0.0,0.0,0.0,456.456884911,brandy,alcohol,456.0,brandy,brandy,newport
cret06,1.0,210.0,0.503597122302,210.0,0.503597122302,0.0,0.0,0.0,0.0,416.941951104,brandy,alcohol,416.0,brandy,brandy,newport
cret06,1.0,182.0,0.471502590674,182.0,0.471502590674,0.0,0.0,0.0,0.0,385.755845865,brandy,alcohol,385.0,brandy,brandy,newport
cret06,1.0,201.0,0.355123674912,201.0,0.355123674912,180.0,0.318021201413,0.0,0.0,565.652327793,brandy,alcohol,565.0,brandy,brandy,newport
cret06,1.0,97.0,0.164406779661,97.0,0.164406779661,292.0,0.494915254237,0.0,0.0,589.339721251,brandy,alcohol,589.0,brandy,brandy,newport
cret06,1.0,267.0,0.571734475375,267.0,0.571734475375,0.0,0.0,0.0,0.0,467.063586471,brandy,alcohol,466.0,brandy,brandy,newport
cret06,1.0,288.0,0.576,288.0,0.576,0.0,0.0,0.0,0.0,498.963430826,brandy,alcohol,499.0,brandy,brandy,newport
cret06,1.0,269.0,0.603139013453,269.0,0.603139013453,0.0,0.0,0.0,0.0,445.976784536,brandy,alcohol,445.0,brandy,brandy,newport
cret06,1.0,311.0,0.645228215768,311.0,0.645228215768,0.0,0.0,0.0,0.0,481.027886933,brandy,alcohol,481.0,brandy,brandy,newport
cret06,1.0,265.0,0.53,265.0,0.53,0.0,0.0,0.0,0.0,500.259708051,brandy,alcohol,499.0,brandy,brandy,newport
cret06,1.0,260.0,0.557939914163,260.0,0.557939914163,0.0,0.0,0.0,0.0,465.495441118,brandy,alcohol,465.0,brandy,brandy,newport
cret06,1.0,577.0,0.625813449024,577.0,0.625813449024,173.0,0.187635574837,0.0,0.0,921.268424526,brandy,alcohol,921.0,brandy,brandy,newport
cret06,1.0,282.0,0.57200811359,282.0,0.57200811359,0.0,0.0,0.0,0.0,492.938275975,brandy,alcohol,492.0,brandy,brandy,newport
cret06,1.0,215.0,0.446985446985,215.0,0.446985446985,180.0,0.37422037422,0.0,0.0,480.66805959,brandy,alcohol,480.0,brandy,brandy,newport
cret06,1.0,274.0,0.603524229075,274.0,0.603524229075,0.0,0.0,0.0,0.0,453.931415594,brandy,alcohol,453.0,brandy,brandy,newport
cret06,1.0,315.0,0.638945233266,315.0,0.638945233266,0.0,0.0,0.0,0.0,492.191612461,brandy,alcohol,492.0,brandy,brandy,newport
cret06,1.0,238.0,0.439114391144,0.0,0.0,238.0,0.439114391144,0.0,0.0,553.014286521,newport,cigarette,413.0,newport,brandy,newport
cret06,1.0,555.0,0.566905005107,555.0,0.566905005107,0.0,0.0,183.0,0.186925434116,978.210381983,brandy,alcohol,978.0,brandy,brandy,newport
cret06,1.0,199.0,0.515544041451,199.0,0.515544041451,0.0,0.0,0.0,0.0,386.46714266,brandy,alcohol,385.0,brandy,brandy,newport
cret06,1.0,216.0,0.542713567839,216.0,0.542713567839,0.0,0.0,0.0,0.0,398.631703237,brandy,alcohol,397.0,brandy,brandy,newport
cret06,1.0,326.0,0.413705583756,326.0,0.413705583756,194.0,0.246192893401,0.0,0.0,788.023156877,brandy,alcohol,787.0,brandy,brandy,newport
cret06,1.0,250.0,0.487329434698,250.0,0.487329434698,0.0,0.0,0.0,0.0,513.360697685,brandy,alcohol,512.0,brandy,brandy,newport
cret06,1.0,295.0,0.61974789916,295.0,0.61974789916,0.0,0.0,0.0,0.0,476.114373696,brandy,alcohol,475.0,brandy,brandy,newport
cret06,1.0,323.0,0.462750716332,323.0,0.462750716332,149.0,0.213467048711,0.0,0.0,697.462237194,brandy,alcohol,697.0,brandy,brandy,newport
cret06,1.0,371.0,0.674545454545,371.0,0.674545454545,0.0,0.0,0.0,0.0,549.056077392,brandy,alcohol,549.0,brandy,brandy,newport
cret06,1.0,192.0,0.510638297872,192.0,0.510638297872,0.0,0.0,0.0,0.0,376.050827459,brandy,alcohol,375.0,brandy,brandy,newport
cret06,1.0,208.0,0.529262086514,208.0,0.529262086514,0.0,0.0,0.0,0.0,393.001511274,brandy,alcohol,392.0,brandy,brandy,newport
cret06,1.0,39.0,0.0904872389791,170.0,0.394431554524,39.0,0.0904872389791,0.0,0.0,431.092569978,brandy,alcohol,430.0,newport,brandy,newport
cret06,1.0,215.0,0.371972318339,215.0,0.371972318339,0.0,0.0,162.0,0.280276816609,577.67182507,brandy,alcohol,577.0,brandy,brandy,newport
cret06,1.0,409.0,0.715034965035,409.0,0.715034965035,0.0,0.0,0.0,0.0,571.557505374,brandy,alcohol,571.0,brandy,brandy,newport
cret06,1.0,200.0,0.377358490566,200.0,0.377358490566,0.0,0.0,321.0,0.605660377358,530.166371847,brandy,alcohol,529.0,brandy,brandy,newport
cret06,1.0,213.0,0.380357142857,213.0,0.380357142857,169.0,0.301785714286,0.0,0.0,559.365678326,brandy,alcohol,559.0,brandy,brandy,newport
cret06,1.0,300.0,0.580270793037,300.0,0.580270793037,0.0,0.0,0.0,0.0,516.56865817,brandy,alcohol,516.0,brandy,brandy,newport
cret06,1.0,278.0,0.550495049505,278.0,0.550495049505,0.0,0.0,0.0,0.0,505.362582014,brandy,alcohol,504.0,brandy,brandy,newport
cret06,1.0,281.0,0.573469387755,281.0,0.573469387755,0.0,0.0,0.0,0.0,489.377832052,brandy,alcohol,489.0,brandy,brandy,newport
cret06,1.0,180.0,0.410022779043,180.0,0.410022779043,0.0,0.0,0.0,0.0,438.916459904,brandy,alcohol,438.0,brandy,brandy,newport
cret06,1.0,328.0,0.57848324515,328.0,0.57848324515,0.0,0.0,0.0,0.0,567.558175953,brandy,alcohol,566.0,brandy,brandy,newport
cret06,1.0,262.0,0.469534050179,262.0,0.469534050179,114.0,0.204301075269,0.0,0.0,558.002945609,brandy,alcohol,557.0,brandy,brandy,newport
cret06,1.0,238.0,0.374803149606,238.0,0.374803149606,0.0,0.0,177.0,0.27874015748,634.850818284,brandy,alcohol,634.0,brandy,brandy,newport
cret06,1.0,247.0,0.388364779874,247.0,0.388364779874,192.0,0.301886792453,0.0,0.0,636.103332075,brandy,alcohol,635.0,brandy,brandy,newport
cret06,1.0,0.0,0.0,0.0,0.0,0.0,0.0,0.0,0.0,375.323100054,none,none,-1.0,brandy,brandy,newport
cret06,1.0,219.0,0.473002159827,219.0,0.473002159827,0.0,0.0,0.0,0.0,463.368885461,brandy,alcohol,462.0,brandy,brandy,newport
cret06,1.0,114.0,0.2375,114.0,0.2375,178.0,0.370833333333,0.0,0.0,480.088638265,brandy,alcohol,479.0,brandy,brandy,newport
cret06,1.0,104.0,0.187725631769,153.0,0.276173285199,104.0,0.187725631769,0.0,0.0,553.513953701,brandy,alcohol,553.0,newport,brandy,newport
cret06,1.0,369.0,0.391304347826,369.0,0.391304347826,0.0,0.0,0.0,0.0,943.131364771,brandy,alcohol,942.0,brandy,brandy,newport
cret06,1.0,194.0,0.367424242424,194.0,0.367424242424,0.0,0.0,0.0,0.0,527.524171217,brandy,alcohol,527.0,brandy,brandy,newport
cret06,1.0,719.0,0.78924259056,719.0,0.78924259056,0.0,0.0,0.0,0.0,911.845627645,brandy,alcohol,911.0,brandy,brandy,newport
cret06,1.0,395.0,0.522486772487,395.0,0.522486772487,159.0,0.210317460317,0.0,0.0,755.603125606,brandy,alcohol,755.0,brandy,brandy,newport
cret06,1.0,210.0,0.486111111111,210.0,0.486111111111,0.0,0.0,0.0,0.0,431.208389656,brandy,alcohol,431.0,brandy,brandy,newport
cret06,1.0,259.0,0.477859778598,259.0,0.477859778598,0.0,0.0,0.0,0.0,541.680283196,brandy,alcohol,541.0,brandy,brandy,newport
cret06,1.0,198.0,0.472553699284,198.0,0.472553699284,0.0,0.0,0.0,0.0,418.263833174,brandy,alcohol,418.0,brandy,brandy,newport
cret06,1.0,250.0,0.505050505051,250.0,0.505050505051,0.0,0.0,0.0,0.0,494.923803104,brandy,alcohol,495.0,brandy,brandy,newport
cret06,1.0,282.0,0.533081285444,282.0,0.533081285444,0.0,0.0,0.0,0.0,529.257269965,brandy,alcohol,528.0,brandy,brandy,newport
cret06,1.0,253.0,0.520576131687,253.0,0.520576131687,0.0,0.0,0.0,0.0,490.144486954,brandy,alcohol,490.0,brandy,brandy,newport
cret06,1.0,140.0,0.308370044053,140.0,0.308370044053,95.0,0.209251101322,0.0,0.0,454.217410716,brandy,alcohol,453.0,brandy,brandy,newport
cret06,1.0,251.0,0.581018518519,251.0,0.581018518519,0.0,0.0,0.0,0.0,432.067332541,brandy,alcohol,431.0,brandy,brandy,newport
cret06,1.0,228.0,0.519362186788,228.0,0.519362186788,0.0,0.0,0.0,0.0,439.582847281,brandy,alcohol,438.0,brandy,brandy,newport
cret06,1.0,255.0,0.487571701721,255.0,0.487571701721,73.0,0.139579349904,0.0,0.0,522.453858832,brandy,alcohol,522.0,brandy,brandy,newport
cret06,1.0,380.0,0.674955595027,380.0,0.674955595027,0.0,0.0,0.0,0.0,569.642732153,brandy,alcohol,569.0,brandy,brandy,newport
cret06,1.0,222.0,0.402173913043,222.0,0.402173913043,148.0,0.268115942029,0.0,0.0,551.806966969,brandy,alcohol,551.0,brandy,brandy,newport
cret06,1.0,358.0,0.61301369863,358.0,0.61301369863,0.0,0.0,0.0,0.0,584.133759798,brandy,alcohol,583.0,brandy,brandy,newport
cret06,1.0,0.0,0.0,0.0,0.0,97.0,0.204210526316,0.0,0.0,474.574289627,newport,cigarette,474.0,brandy,brandy,newport
cret06,1.0,318.0,0.471111111111,318.0,0.471111111111,0.0,0.0,0.0,0.0,674.556879617,brandy,alcohol,674.0,brandy,brandy,newport
cret06,1.0,172.0,0.445595854922,172.0,0.445595854922,0.0,0.0,0.0,0.0,385.232805458,brandy,alcohol,385.0,brandy,brandy,newport
cret06,1.0,109.0,0.322485207101,109.0,0.322485207101,0.0,0.0,0.0,0.0,337.680352019,brandy,alcohol,337.0,brandy,brandy,newport
cret06,1.0,253.0,0.513184584178,253.0,0.513184584178,0.0,0.0,0.0,0.0,492.772834116,brandy,alcohol,492.0,brandy,brandy,newport
cret06,1.0,333.0,0.492603550296,333.0,0.492603550296,157.0,0.23224852071,0.0,0.0,675.700692815,brandy,alcohol,675.0,brandy,brandy,newport
cret06,1.0,203.0,0.516539440204,203.0,0.516539440204,0.0,0.0,0.0,0.0,393.068674053,brandy,alcohol,392.0,brandy,brandy,newport
cret07,3.0,781.0,0.637551020408,781.0,0.637551020408,42.0,0.0342857142857,379.0,0.309387755102,1224.52645851,marlboro,cigarette,1224.0,josecuervo,josecuervo,americanspirit
cret07,3.0,620.0,0.380835380835,620.0,0.380835380835,752.0,0.461916461916,96.0,0.0589680589681,1627.97698826,waterbottle,neutral,1627.0,josecuervo,josecuervo,americanspirit
cret07,2.0,597.0,0.629083245522,163.0,0.171759747102,597.0,0.629083245522,0.0,0.0,947.82064566,americanspirit,cigarette,944.0,americanspirit,josecuervo,americanspirit
cret07,1.0,570.0,0.584615384615,221.0,0.226666666667,0.0,0.0,570.0,0.584615384615,973.950191291,waterbottle,neutral,974.0,waterbottle,josecuervo,americanspirit
cret07,1.0,700.0,0.507982583454,277.0,0.201015965167,700.0,0.507982583454,200.0,0.145137880987,1377.38164454,americanspirit,cigarette,1377.0,americanspirit,josecuervo,americanspirit
cret07,1.0,744.0,0.603896103896,240.0,0.194805194805,744.0,0.603896103896,90.0,0.0730519480519,1231.78865172,waterbottle,neutral,1231.0,americanspirit,josecuervo,americanspirit
cret07,1.0,431.0,0.478357380688,305.0,0.338512763596,431.0,0.478357380688,0.0,0.0,900.496167475,americanspirit,cigarette,900.0,americanspirit,josecuervo,americanspirit
cret07,3.0,792.0,0.405737704918,792.0,0.405737704918,186.0,0.0952868852459,926.0,0.474385245902,1951.27236022,josecuervo,alcohol,1951.0,josecuervo,josecuervo,americanspirit
cret07,2.0,1369.0,0.447971204188,1369.0,0.447971204188,567.0,0.185536649215,1055.0,0.345222513089,3055.15117104,corona,alcohol,3055.0,corona,josecuervo,americanspirit
cret07,1.0,949.0,0.606389776358,411.0,0.262619808307,0.0,0.0,949.0,0.606389776358,1565.0366601,waterglass,neutral,1564.0,waterglass,josecuervo,americanspirit
cret07,1.0,752.0,0.542177361211,752.0,0.542177361211,610.0,0.439798125451,0.0,0.0,1386.13981746,josecuervo,alcohol,1386.0,josecuervo,josecuervo,americanspirit
cret07,1.0,344.0,0.404705882353,344.0,0.404705882353,181.0,0.212941176471,304.0,0.357647058824,849.317673238,americanspirit,cigarette,849.0,josecuervo,josecuervo,americanspirit
cret07,1.0,281.0,0.578189300412,0.0,0.0,281.0,0.578189300412,27.0,0.0555555555556,486.222139635,waterglass,neutral,485.0,americanspirit,josecuervo,americanspirit
cret07,1.0,1189.0,0.65401540154,1189.0,0.65401540154,392.0,0.215621562156,0.0,0.0,1817.44493961,josecuervo,alcohol,1756.0,josecuervo,josecuervo,americanspirit
cret07,4.0,438.0,0.534146341463,0.0,0.0,438.0,0.534146341463,371.0,0.45243902439,819.761292873,marlboro,cigarette,819.0,marlboro,josecuervo,americanspirit
cret07,3.0,775.0,1.0,775.0,1.0,0.0,0.0,0.0,0.0,775.380999019,josecuervo,alcohol,775.0,josecuervo,josecuervo,americanspirit
cret07,3.0,840.0,0.489795918367,840.0,0.489795918367,590.0,0.344023323615,255.0,0.148688046647,1714.87617298,josecuervo,alcohol,1714.0,josecuervo,josecuervo,americanspirit
cret07,2.0,859.0,0.476164079823,512.0,0.283813747228,859.0,0.476164079823,393.0,0.217849223947,1804.19910778,naturallight,alcohol,1803.0,americanspirit,josecuervo,americanspirit
cret07,1.0,579.0,0.885321100917,0.0,0.0,62.0,0.0948012232416,579.0,0.885321100917,653.887940904,americanspirit,cigarette,653.0,waterbottle,josecuervo,americanspirit
cret07,3.0,469.0,0.431066176471,469.0,0.431066176471,217.0,0.199448529412,224.0,0.205882352941,1087.83252193,josecuervo,alcohol,1087.0,josecuervo,josecuervo,americanspirit
cret07,3.0,287.0,0.378627968338,287.0,0.378627968338,49.0,0.0646437994723,401.0,0.529023746702,757.618324757,camelcrush,cigarette,757.0,josecuervo,josecuervo,americanspirit
cret07,1.0,642.0,0.300280636109,642.0,0.300280636109,1053.0,0.49251637044,376.0,0.175865294668,2137.80499509,americanspirit,cigarette,2137.0,josecuervo,josecuervo,americanspirit
cret07,1.0,730.0,0.492245448415,331.0,0.223196223871,730.0,0.492245448415,385.0,0.259608900877,1483.24423727,americanspirit,cigarette,1482.0,americanspirit,josecuervo,americanspirit
cret07,4.0,542.0,0.267126663381,542.0,0.267126663381,760.0,0.37456875308,680.0,0.335140463282,2028.83628987,newamsterdam,alcohol,2028.0,newamsterdam,josecuervo,americanspirit
cret07,3.0,1317.0,0.702025586354,365.0,0.194562899787,1317.0,0.702025586354,0.0,0.0,1875.60067975,newport,cigarette,1875.0,newport,josecuervo,americanspirit
cret07,2.0,955.0,0.481836528759,955.0,0.481836528759,728.0,0.367305751766,232.0,0.117053481332,1982.57066472,waterglass,neutral,1982.0,corona,josecuervo,americanspirit
cret07,4.0,870.0,0.471800433839,870.0,0.471800433839,417.0,0.226138828633,371.0,0.201193058568,1843.88450296,luckystrike,cigarette,1843.0,sutter,josecuervo,americanspirit
cret07,1.0,470.0,0.266742338252,468.0,0.265607264472,768.0,0.435868331442,470.0,0.266742338252,1761.87907199,waterbottle,neutral,1761.0,waterbottle,josecuervo,americanspirit
cret07,1.0,750.0,0.544662309368,750.0,0.544662309368,358.0,0.259985475672,250.0,0.181554103123,1376.58774079,josecuervo,alcohol,1376.0,josecuervo,josecuervo,americanspirit
cret07,2.0,1189.0,0.606323304437,1189.0,0.606323304437,546.0,0.278429372769,190.0,0.0968893421724,1962.06011972,americanspirit,cigarette,1961.0,smirnoff,josecuervo,americanspirit
cret07,2.0,994.0,0.525647805394,502.0,0.265468006346,994.0,0.525647805394,353.0,0.18667371761,1889.84498832,americanspirit,cigarette,1890.0,americanspirit,josecuervo,americanspirit
cret07,4.0,757.0,0.604632587859,757.0,0.604632587859,182.0,0.145367412141,292.0,0.233226837061,1251.7524889,greygoose,alcohol,1251.0,greygoose,josecuervo,americanspirit
cret07,3.0,427.0,0.464130434783,427.0,0.464130434783,0.0,0.0,261.0,0.283695652174,920.17520135,selzter,neutral,919.0,josecuervo,josecuervo,americanspirit
cret07,2.0,461.0,0.48121085595,461.0,0.48121085595,0.0,0.0,306.0,0.319415448852,957.720596955,sutter,alcohol,957.0,sutter,josecuervo,americanspirit
cret07,1.0,499.0,0.444741532977,499.0,0.444741532977,301.0,0.268270944742,301.0,0.268270944742,1121.67752013,americanspirit,cigarette,1121.0,josecuervo,josecuervo,americanspirit
cret07,4.0,580.0,0.656851642129,142.0,0.160815402039,580.0,0.656851642129,0.0,0.0,882.743044703,newport,cigarette,882.0,newport,josecuervo,americanspirit
cret07,1.0,386.0,0.218449349179,1021.0,0.577815506508,386.0,0.218449349179,322.0,0.182229767968,1766.55216985,americanspirit,cigarette,1766.0,americanspirit,josecuervo,americanspirit
cret07,4.0,698.0,0.590025359256,698.0,0.590025359256,219.0,0.185122569738,236.0,0.199492814877,1182.05225208,bacardi,alcohol,1182.0,bacardi,josecuervo,americanspirit
cret07,1.0,198.0,0.231308411215,356.0,0.415887850467,104.0,0.121495327103,198.0,0.231308411215,855.929114344,americanspirit,cigarette,855.0,waterbottle,josecuervo,americanspirit
cret07,4.0,1027.0,0.582199546485,1027.0,0.582199546485,502.0,0.284580498866,199.0,0.112811791383,1764.09992306,luckystrike,cigarette,1763.0,jackdaniels,josecuervo,americanspirit
cret07,1.0,653.0,0.869507323569,653.0,0.869507323569,0.0,0.0,87.0,0.115845539281,752.48293134,selzter,neutral,751.0,josecuervo,josecuervo,americanspirit
cret07,2.0,570.0,0.767160161507,570.0,0.767160161507,0.0,0.0,0.0,0.0,743.534861544,jackdaniels,alcohol,742.0,jackdaniels,josecuervo,americanspirit
cret07,2.0,434.0,0.328538985617,736.0,0.557153671461,434.0,0.328538985617,101.0,0.0764572293717,1320.96027218,selzter,neutral,1320.0,americanspirit,josecuervo,americanspirit
cret07,2.0,662.0,0.501135503407,662.0,0.501135503407,122.0,0.0923542770628,357.0,0.270249810749,1321.10552661,americanspirit,cigarette,1320.0,corona,josecuervo,americanspirit
cret07,2.0,402.0,0.452193475816,316.0,0.355455568054,402.0,0.452193475816,0.0,0.0,888.856520834,naturallight,alcohol,888.0,americanspirit,josecuervo,americanspirit
cret07,1.0,669.0,0.901617250674,669.0,0.901617250674,63.0,0.0849056603774,0.0,0.0,741.567545123,americanspirit,cigarette,741.0,josecuervo,josecuervo,americanspirit
cret07,3.0,434.0,0.34692246203,434.0,0.34692246203,195.0,0.15587529976,369.0,0.294964028777,1251.38472496,waterglass,neutral,1251.0,josecuervo,josecuervo,americanspirit
cret07,4.0,204.0,0.31875,0.0,0.0,204.0,0.31875,240.0,0.375,639.340619684,newport,cigarette,636.0,newport,josecuervo,americanspirit
cret07,1.0,995.0,0.596880623875,995.0,0.596880623875,373.0,0.22375524895,0.0,0.0,1666.59379222,josecuervo,alcohol,1666.0,josecuervo,josecuervo,americanspirit
cret07,4.0,735.0,0.39644012945,735.0,0.39644012945,246.0,0.132686084142,674.0,0.363538295577,1854.17437583,selzter,neutral,1853.0,heineken,josecuervo,americanspirit
cret07,3.0,419.0,0.226241900648,851.0,0.459503239741,392.0,0.211663066955,419.0,0.226241900648,1851.50922855,josecuervo,alcohol,1851.0,waterbottle,josecuervo,americanspirit
cret07,1.0,877.0,0.415246212121,1024.0,0.484848484848,877.0,0.415246212121,163.0,0.077178030303,2111.643134,americanspirit,cigarette,2111.0,americanspirit,josecuervo,americanspirit
cret07,1.0,435.0,0.242070116861,435.0,0.242070116861,409.0,0.227601558152,752.0,0.418475236505,1796.7224061,josecuervo,alcohol,1796.0,josecuervo,josecuervo,americanspirit
cret07,1.0,306.0,0.239624119029,415.0,0.324980422866,306.0,0.239624119029,386.0,0.302270947533,1276.09437597,americanspirit,cigarette,1276.0,americanspirit,josecuervo,americanspirit
cret07,3.0,319.0,0.289211242067,222.0,0.201269265639,319.0,0.289211242067,195.0,0.17679057117,1102.63986687,waterglass,neutral,1102.0,newport,josecuervo,americanspirit
cret07,1.0,214.0,0.136132315522,419.0,0.266539440204,755.0,0.480279898219,214.0,0.136132315522,1575.46072323,americanspirit,cigarette,1575.0,waterbottle,josecuervo,americanspirit
cret07,1.0,411.0,0.313023610053,255.0,0.194211728865,411.0,0.313023610053,395.0,0.300837776085,1312.38346427,americanspirit,cigarette,1312.0,americanspirit,josecuervo,americanspirit
cret07,3.0,625.0,0.451916124367,625.0,0.451916124367,435.0,0.31453362256,116.0,0.0838756326826,1383.29582513,josecuervo,alcohol,1382.0,josecuervo,josecuervo,americanspirit
cret07,1.0,783.0,0.644975288303,783.0,0.644975288303,259.0,0.21334431631,0.0,0.0,1213.40726447,josecuervo,alcohol,1213.0,josecuervo,josecuervo,americanspirit
cret07,1.0,548.0,0.344005021971,356.0,0.223477715003,548.0,0.344005021971,649.0,0.407407407407,1592.60930196,americanspirit,cigarette,1592.0,americanspirit,josecuervo,americanspirit
cret07,1.0,502.0,0.436901653612,502.0,0.436901653612,377.0,0.328111401218,239.0,0.208006962576,1148.62410231,americanspirit,cigarette,1148.0,josecuervo,josecuervo,americanspirit
cret07,1.0,218.0,0.245495495495,289.0,0.32545045045,218.0,0.245495495495,359.0,0.404279279279,888.117462183,josecuervo,alcohol,887.0,americanspirit,josecuervo,americanspirit
cret07,1.0,924.0,0.859534883721,924.0,0.859534883721,0.0,0.0,0.0,0.0,1074.06459352,josecuervo,alcohol,1074.0,josecuervo,josecuervo,americanspirit
cret07,3.0,300.0,0.41958041958,0.0,0.0,300.0,0.41958041958,235.0,0.328671328671,714.038129372,newport,cigarette,703.0,newport,josecuervo,americanspirit
cret07,2.0,228.0,0.23602484472,345.0,0.357142857143,197.0,0.203933747412,228.0,0.23602484472,965.895885127,americanspirit,cigarette,965.0,waterbottle,josecuervo,americanspirit
cret07,1.0,557.0,0.411677753141,557.0,0.411677753141,771.0,0.569844789357,0.0,0.0,1352.17340491,americanspirit,cigarette,1352.0,josecuervo,josecuervo,americanspirit
cret07,4.0,232.0,0.28855721393,280.0,0.348258706468,232.0,0.28855721393,129.0,0.160447761194,803.028441649,waterglass,neutral,803.0,newport,josecuervo,americanspirit
cret07,2.0,444.0,0.323144104803,444.0,0.323144104803,344.0,0.250363901019,214.0,0.155749636099,1374.37676838,corona,alcohol,1373.0,corona,josecuervo,americanspirit
cret07,1.0,400.0,0.41067761807,400.0,0.41067761807,168.0,0.172484599589,332.0,0.340862422998,973.871907757,americanspirit,cigarette,973.0,josecuervo,josecuervo,americanspirit
cret07,2.0,638.0,0.547639484979,638.0,0.547639484979,145.0,0.124463519313,362.0,0.310729613734,1164.68553777,americanspirit,cigarette,1164.0,bacardi,josecuervo,americanspirit
cret07,4.0,691.0,1.0,691.0,1.0,0.0,0.0,0.0,0.0,691.295177138,greygoose,alcohol,690.0,greygoose,josecuervo,americanspirit
cret07,1.0,789.0,0.5249500998,478.0,0.318030605456,789.0,0.5249500998,200.0,0.133067198935,1502.60342241,americanspirit,cigarette,1502.0,americanspirit,josecuervo,americanspirit
cret07,4.0,243.0,0.176214648296,243.0,0.176214648296,258.0,0.187092095722,849.0,0.615663524293,1379.24757498,waterglass,neutral,1378.0,brandy,josecuervo,americanspirit
cret07,1.0,391.0,0.375239923225,196.0,0.188099808061,391.0,0.375239923225,209.0,0.200575815739,1041.31556692,americanspirit,cigarette,1041.0,americanspirit,josecuervo,americanspirit
cret07,4.0,553.0,0.576041666667,553.0,0.576041666667,94.0,0.0979166666667,191.0,0.198958333333,959.972674685,newport,cigarette,959.0,skyy,josecuervo,americanspirit
cret07,1.0,373.0,0.316101694915,417.0,0.353389830508,361.0,0.30593220339,373.0,0.316101694915,1180.15865609,waterglass,neutral,1179.0,waterglass,josecuervo,americanspirit
cret07,3.0,288.0,0.22695035461,792.0,0.624113475177,288.0,0.22695035461,0.0,0.0,1268.86333107,marlboro,cigarette,1268.0,marlboro,josecuervo,americanspirit
cret07,3.0,242.0,0.175235336713,597.0,0.432295438088,512.0,0.37074583635,242.0,0.175235336713,1380.94829179,josecuervo,alcohol,1380.0,waterbottle,josecuervo,americanspirit
cret07,1.0,580.0,0.491525423729,430.0,0.364406779661,580.0,0.491525423729,0.0,0.0,1180.53041915,americanspirit,cigarette,1179.0,americanspirit,josecuervo,americanspirit
cret07,2.0,472.0,0.447393364929,472.0,0.447393364929,215.0,0.203791469194,191.0,0.181042654028,1054.27645745,americanspirit,cigarette,1054.0,brandy,josecuervo,americanspirit
cret07,1.0,690.0,0.55023923445,690.0,0.55023923445,0.0,0.0,379.0,0.302232854864,1253.79844603,waterglass,neutral,1253.0,josecuervo,josecuervo,americanspirit
cret07,2.0,792.0,0.84076433121,792.0,0.84076433121,0.0,0.0,0.0,0.0,941.045029611,sutter,alcohol,941.0,sutter,josecuervo,americanspirit
cret07,1.0,241.0,0.215563506261,377.0,0.337209302326,241.0,0.215563506261,477.0,0.426654740608,1117.3556205,selzter,neutral,1117.0,americanspirit,josecuervo,americanspirit
cret07,3.0,341.0,0.235659986178,341.0,0.235659986178,289.0,0.199723565999,772.0,0.533517622668,1446.15908491,josecuervo,alcohol,1446.0,josecuervo,josecuervo,americanspirit
cret07,3.0,572.0,0.26335174954,572.0,0.26335174954,902.0,0.415285451197,641.0,0.295119705341,2170.84109897,josecuervo,alcohol,2171.0,josecuervo,josecuervo,americanspirit
cret07,1.0,336.0,0.293963254593,336.0,0.293963254593,572.0,0.500437445319,207.0,0.181102362205,1143.39766357,americanspirit,cigarette,1142.0,josecuervo,josecuervo,americanspirit
cret07,2.0,508.0,0.71048951049,508.0,0.71048951049,0.0,0.0,182.0,0.254545454545,714.19793674,waterglass,neutral,714.0,bacardi,josecuervo,americanspirit
cret07,1.0,305.0,0.295256534366,604.0,0.584704743466,99.0,0.0958373668925,305.0,0.295256534366,1032.2958823,americanspirit,cigarette,1032.0,waterbottle,josecuervo,americanspirit
cret07,2.0,0.0,0.0,231.0,0.386934673367,342.0,0.572864321608,0.0,0.0,596.34728981,captainmorgan,alcohol,596.0,waterbottle,josecuervo,americanspirit
cret07,3.0,0.0,0.0,0.0,0.0,547.0,1.0,0.0,0.0,546.416511375,camelcrush,cigarette,546.0,waterbottle,josecuervo,americanspirit
cret07,3.0,533.0,0.324012158055,808.0,0.491185410334,239.0,0.145288753799,533.0,0.324012158055,1645.7956416,waterbottle,neutral,1645.0,waterbottle,josecuervo,americanspirit
cret07,1.0,229.0,0.428838951311,266.0,0.498127340824,21.0,0.0393258426966,229.0,0.428838951311,533.479788098,americanspirit,cigarette,533.0,waterglass,josecuervo,americanspirit
cret07,3.0,491.0,0.236740597878,491.0,0.236740597878,1345.0,0.648505303761,204.0,0.0983606557377,2073.55421017,luckystrike,cigarette,2073.0,josecuervo,josecuervo,americanspirit
cret07,1.0,711.0,0.559402045633,248.0,0.19512195122,711.0,0.559402045633,189.0,0.148701809599,1270.94902272,americanspirit,cigarette,1270.0,americanspirit,josecuervo,americanspirit
cret07,2.0,421.0,0.578296703297,421.0,0.578296703297,134.0,0.184065934066,0.0,0.0,727.492793766,sutter,alcohol,727.0,sutter,josecuervo,americanspirit
cret07,1.0,535.0,0.389657683904,526.0,0.383102694829,276.0,0.201019664967,535.0,0.389657683904,1372.68262111,waterglass,neutral,1372.0,waterglass,josecuervo,americanspirit
cret07,3.0,0.0,0.0,0.0,0.0,315.0,0.35274356103,0.0,0.0,893.206410365,newport,cigarette,892.0,josecuervo,josecuervo,americanspirit
cret07,4.0,1659.0,0.321138211382,2373.0,0.459349593496,1659.0,0.321138211382,1002.0,0.193960511034,5167.52853094,naturallight,alcohol,5166.0,marlboro,josecuervo,americanspirit
cret07,1.0,407.0,0.574858757062,73.0,0.103107344633,205.0,0.289548022599,407.0,0.574858757062,708.648277322,josecuervo,alcohol,708.0,waterbottle,josecuervo,americanspirit
cret07,2.0,527.0,0.430204081633,289.0,0.235918367347,527.0,0.430204081633,370.0,0.302040816327,1224.69045345,waterbottle,neutral,1224.0,americanspirit,josecuervo,americanspirit
cret07,1.0,271.0,0.258834765998,344.0,0.328557784145,239.0,0.228271251194,271.0,0.258834765998,1046.39117732,waterglass,neutral,1046.0,waterglass,josecuervo,americanspirit
cret07,3.0,111.0,0.154166666667,202.0,0.280555555556,111.0,0.154166666667,318.0,0.441666666667,722.033894501,newport,cigarette,721.0,newport,josecuervo,americanspirit
cret07,1.0,509.0,0.491787439614,509.0,0.491787439614,286.0,0.276328502415,220.0,0.212560386473,1037.12601592,americanspirit,cigarette,1036.0,josecuervo,josecuervo,americanspirit
cret07,3.0,678.0,0.415186772811,678.0,0.415186772811,468.0,0.286589099816,268.0,0.164115125536,1632.667741,josecuervo,alcohol,1632.0,josecuervo,josecuervo,americanspirit
cret07,2.0,295.0,0.401360544218,30.0,0.0408163265306,384.0,0.522448979592,295.0,0.401360544218,734.258327157,newamsterdam,alcohol,734.0,waterbottle,josecuervo,americanspirit
cret07,1.0,630.0,0.524126455907,630.0,0.524126455907,310.0,0.257903494176,218.0,0.181364392679,1201.61992744,josecuervo,alcohol,1201.0,josecuervo,josecuervo,americanspirit
cret07,2.0,316.0,0.37619047619,316.0,0.37619047619,344.0,0.409523809524,148.0,0.17619047619,839.765437746,selzter,neutral,839.0,brandy,josecuervo,americanspirit
cret07,3.0,659.0,0.502286585366,659.0,0.502286585366,314.0,0.239329268293,291.0,0.221798780488,1312.07585534,josecuervo,alcohol,1312.0,josecuervo,josecuervo,americanspirit
cret07,3.0,215.0,0.163125948407,947.0,0.718512898331,110.0,0.0834597875569,215.0,0.163125948407,1317.32898482,luckystrike,cigarette,1317.0,waterbottle,josecuervo,americanspirit
cret07,1.0,537.0,0.437296416938,317.0,0.258143322476,537.0,0.437296416938,328.0,0.267100977199,1227.59838073,selzter,neutral,1227.0,americanspirit,josecuervo,americanspirit
cret07,2.0,0.0,0.0,350.0,0.406976744186,263.0,0.305813953488,0.0,0.0,859.788259958,smirnoff,alcohol,859.0,waterbottle,josecuervo,americanspirit
cret07,3.0,1249.0,0.572935779817,260.0,0.119266055046,1249.0,0.572935779817,518.0,0.237614678899,2179.01483317,newport,cigarette,2179.0,newport,josecuervo,americanspirit
cret07,1.0,444.0,0.31223628692,444.0,0.31223628692,364.0,0.255977496484,333.0,0.23417721519,1421.72892411,americanspirit,cigarette,1421.0,josecuervo,josecuervo,americanspirit
cret07,2.0,380.0,0.490322580645,380.0,0.490322580645,224.0,0.289032258065,0.0,0.0,775.475467463,americanspirit,cigarette,774.0,brandy,josecuervo,americanspirit
cret07,1.0,354.0,0.546296296296,64.0,0.0987654320988,0.0,0.0,354.0,0.546296296296,648.467039366,josecuervo,alcohol,647.0,waterbottle,josecuervo,americanspirit
cret07,1.0,682.0,0.632066728452,682.0,0.632066728452,0.0,0.0,385.0,0.356811862836,1078.59119497,josecuervo,alcohol,1078.0,josecuervo,josecuervo,americanspirit
cret07,2.0,387.0,0.560869565217,387.0,0.560869565217,0.0,0.0,287.0,0.415942028986,690.085647883,jimbeam,alcohol,689.0,jimbeam,josecuervo,americanspirit
cret07,1.0,707.0,0.87176325524,0.0,0.0,707.0,0.87176325524,83.0,0.102342786683,811.462394737,selzter,neutral,810.0,americanspirit,josecuervo,americanspirit
cret07,1.0,237.0,0.389802631579,355.0,0.583881578947,0.0,0.0,237.0,0.389802631579,607.793439285,waterbottle,neutral,607.0,waterbottle,josecuervo,americanspirit
cret07,1.0,598.0,0.526408450704,206.0,0.181338028169,598.0,0.526408450704,281.0,0.24735915493,1135.62432678,waterglass,neutral,1135.0,americanspirit,josecuervo,americanspirit
cret07,4.0,173.0,0.25975975976,117.0,0.175675675676,173.0,0.25975975976,212.0,0.318318318318,665.125230996,naturallight,alcohol,665.0,newport,josecuervo,americanspirit
cret07,3.0,369.0,0.367529880478,361.0,0.359561752988,369.0,0.367529880478,241.0,0.240039840637,1003.56722748,newport,cigarette,1003.0,newport,josecuervo,americanspirit
