sub_id,trial_type,time_looking_at_pref,percentage_looking_at_pref,time_looking_at_alc,percentage_looking_at_alc,time_looking_at_cig,percentage_looking_at_cig,time_looking_at_neu,percentage_looking_at_neu,response_time,last_item_looked_at,last_category_looked_at,time_last_item_looked_at,selected_item,alcohol_pref,cig_pref
cret01,1.0,2448.0,0.915824915825,0.0,0.0,225.0,0.0841750841751,2448.0,0.915824915825,2981.2388821,waterglass,neutral,2979.0,waterglass,heineken,newport
cret01,4.0,0.0,0.0,0.0,0.0,1662.0,1.0,0.0,0.0,1848.89448464,americanspirit,cigarette,1848.0,waterbottle,heineken,newport
cret01,3.0,391.0,0.216620498615,1414.0,0.783379501385,0.0,0.0,391.0,0.216620498615,1991.60652547,waterbottle,neutral,1991.0,waterbottle,heineken,newport
cret01,1.0,815.0,1.0,0.0,0.0,0.0,0.0,815.0,1.0,1065.89179525,waterbottle,neutral,1065.0,waterbottle,heineken,newport
cret01,1.0,14.0,0.047138047138,283.0,0.952861952862,0.0,0.0,14.0,0.047138047138,1148.27560952,waterglass,neutral,737.0,waterglass,heineken,newport
cret01,1.0,825.0,1.0,0.0,0.0,0.0,0.0,825.0,1.0,1037.61860018,waterbottle,neutral,1037.0,waterbottle,heineken,newport
cret01,3.0,0.0,0.0,0.0,0.0,1023.0,1.0,0.0,0.0,1177.11594644,camelcrush,cigarette,1176.0,waterglass,heineken,newport
cret01,1.0,1191.0,0.632501327669,309.0,0.16409984068,383.0,0.203398831652,1191.0,0.632501327669,2104.43634236,selzter,neutral,2104.0,selzter,heineken,newport
cret01,2.0,1181.0,0.434670592565,1154.0,0.424733161575,382.0,0.140596245859,1181.0,0.434670592565,2991.23382239,selzter,neutral,2991.0,selzter,heineken,newport
cret01,1.0,546.0,1.0,0.0,0.0,0.0,0.0,546.0,1.0,724.972777904,waterglass,neutral,724.0,waterglass,heineken,newport
cret01,4.0,537.0,1.0,0.0,0.0,0.0,0.0,537.0,1.0,700.802809384,waterbottle,neutral,700.0,waterbottle,heineken,newport
cret01,1.0,0.0,0.0,261.0,1.0,0.0,0.0,0.0,0.0,1260.30865545,heineken,alcohol,1060.0,selzter,heineken,newport
cret01,1.0,335.0,0.376827896513,0.0,0.0,554.0,0.623172103487,335.0,0.376827896513,1077.05986497,waterglass,neutral,1076.0,waterglass,heineken,newport
cret01,3.0,228.0,0.32664756447,0.0,0.0,470.0,0.67335243553,228.0,0.32664756447,890.045267102,waterglass,neutral,889.0,waterglass,heineken,newport
cret01,2.0,324.0,0.755244755245,105.0,0.244755244755,0.0,0.0,324.0,0.755244755245,904.888929399,waterglass,neutral,904.0,waterglass,heineken,newport
cret01,1.0,270.0,1.0,0.0,0.0,0.0,0.0,270.0,1.0,628.922561906,waterglass,neutral,472.0,waterglass,heineken,newport
cret01,3.0,210.0,0.45652173913,0.0,0.0,250.0,0.54347826087,210.0,0.45652173913,787.2143081,camelcrush,cigarette,778.0,selzter,heineken,newport
cret01,3.0,646.0,1.0,0.0,0.0,0.0,0.0,646.0,1.0,968.458219922,waterglass,neutral,967.0,waterglass,heineken,newport
cret01,1.0,43.0,1.0,0.0,0.0,0.0,0.0,43.0,1.0,628.00609453,waterglass,neutral,408.0,waterglass,heineken,newport
cret01,2.0,14.0,1.0,0.0,0.0,0.0,0.0,14.0,1.0,868.312643644,waterbottle,neutral,862.0,waterbottle,heineken,newport
cret01,4.0,0.0,0.0,0.0,0.0,218.0,1.0,0.0,0.0,773.550429525,camelcrush,cigarette,774.0,waterbottle,heineken,newport
cret01,2.0,0.0,0.0,0.0,0.0,1305.0,1.0,0.0,0.0,1490.40948062,newport,cigarette,1490.0,selzter,heineken,newport
cret01,1.0,288.0,1.0,0.0,0.0,0.0,0.0,288.0,1.0,615.39931283,waterbottle,neutral,512.0,waterbottle,heineken,newport
cret01,2.0,242.0,0.327913279133,496.0,0.672086720867,0.0,0.0,242.0,0.327913279133,2779.68404509,waterglass,neutral,2779.0,waterglass,heineken,newport
cret01,3.0,163.0,1.0,0.0,0.0,0.0,0.0,163.0,1.0,1060.3877707,waterbottle,neutral,873.0,waterbottle,heineken,newport
cret01,1.0,480.0,0.510095642933,250.0,0.265674814028,211.0,0.224229543039,480.0,0.510095642933,1202.37356672,selzter,neutral,1201.0,selzter,heineken,newport
cret01,2.0,372.0,1.0,0.0,0.0,0.0,0.0,372.0,1.0,615.957547576,waterbottle,neutral,615.0,waterbottle,heineken,newport
cret01,1.0,331.0,0.412204234122,0.0,0.0,472.0,0.587795765878,331.0,0.412204234122,1122.07896526,newport,cigarette,1121.0,waterbottle,heineken,newport
cret01,2.0,383.0,1.0,0.0,0.0,0.0,0.0,383.0,1.0,749.831353587,waterglass,neutral,749.0,waterglass,heineken,newport
cret01,3.0,261.0,1.0,0.0,0.0,0.0,0.0,261.0,1.0,655.621422622,selzter,neutral,655.0,selzter,heineken,newport
cret01,1.0,552.0,1.0,0.0,0.0,0.0,0.0,552.0,1.0,1068.71680549,waterbottle,neutral,1068.0,waterbottle,heineken,newport
cret01,4.0,519.0,0.83844911147,0.0,0.0,100.0,0.16155088853,519.0,0.83844911147,868.92143674,luckystrike,cigarette,868.0,waterbottle,heineken,newport
cret01,3.0,194.0,1.0,0.0,0.0,0.0,0.0,194.0,1.0,1018.60126916,waterbottle,neutral,908.0,waterbottle,heineken,newport
cret01,1.0,1662.0,1.0,0.0,0.0,0.0,0.0,1662.0,1.0,1936.33436768,waterglass,neutral,1936.0,waterglass,heineken,newport
cret01,4.0,424.0,1.0,0.0,0.0,0.0,0.0,424.0,1.0,605.434744613,waterglass,neutral,605.0,waterglass,heineken,newport
cret01,1.0,236.0,1.0,0.0,0.0,0.0,0.0,236.0,1.0,1133.48456391,selzter,neutral,1132.0,selzter,heineken,newport
cret03,2.0,332.0,0.226466575716,621.0,0.423601637108,332.0,0.226466575716,513.0,0.349931787176,2107.40713176,selzter,neutral,2106.0,maverick,naturallight,maverick
cret03,1.0,889.0,0.540754257908,755.0,0.459245742092,889.0,0.540754257908,0.0,0.0,1947.33195547,naturallight,alcohol,1947.0,maverick,naturallight,maverick
cret03,1.0,410.0,0.573426573427,410.0,0.573426573427,305.0,0.426573426573,0.0,0.0,985.344501973,naturallight,alcohol,984.0,naturallight,naturallight,maverick
cret03,1.0,620.0,1.0,620.0,1.0,0.0,0.0,0.0,0.0,1060.45269572,naturallight,alcohol,1049.0,naturallight,naturallight,maverick
cret03,1.0,0.0,0.0,0.0,0.0,0.0,0.0,823.0,1.0,1125.39777721,waterglass,neutral,1113.0,maverick,naturallight,maverick
cret03,1.0,393.0,0.803680981595,96.0,0.196319018405,0.0,0.0,393.0,0.803680981595,778.052169846,naturallight,alcohol,778.0,waterglass,naturallight,maverick
cret03,3.0,870.0,0.388046387154,870.0,0.388046387154,690.0,0.307760927743,682.0,0.304192685103,2557.33487919,naturallight,alcohol,2557.0,naturallight,naturallight,maverick
cret03,1.0,440.0,0.374468085106,415.0,0.353191489362,440.0,0.374468085106,320.0,0.272340425532,1356.86368683,maverick,cigarette,1356.0,maverick,naturallight,maverick
cret03,2.0,800.0,1.0,0.0,0.0,0.0,0.0,800.0,1.0,886.397443336,waterbottle,neutral,885.0,waterbottle,naturallight,maverick
cret03,1.0,511.0,1.0,0.0,0.0,0.0,0.0,511.0,1.0,510.98885289,waterglass,neutral,510.0,waterglass,naturallight,maverick
cret03,1.0,183.0,0.394396551724,183.0,0.394396551724,0.0,0.0,281.0,0.605603448276,1125.96558951,naturallight,alcohol,932.0,naturallight,naturallight,maverick
cret03,4.0,1130.0,0.710691823899,451.0,0.283647798742,1130.0,0.710691823899,9.0,0.00566037735849,2114.40074258,waterglass,neutral,1974.0,newport,naturallight,maverick
cret03,3.0,1171.0,1.0,1171.0,1.0,0.0,0.0,0.0,0.0,1510.30425922,naturallight,alcohol,1509.0,naturallight,naturallight,maverick
cret03,1.0,615.0,0.940366972477,39.0,0.0596330275229,615.0,0.940366972477,0.0,0.0,1095.46502305,maverick,cigarette,1095.0,maverick,naturallight,maverick
cret03,2.0,1310.0,0.66531234129,0.0,0.0,1310.0,0.66531234129,659.0,0.33468765871,2152.29312447,maverick,cigarette,2152.0,maverick,naturallight,maverick
cret03,1.0,540.0,0.758426966292,172.0,0.241573033708,540.0,0.758426966292,0.0,0.0,725.485232831,maverick,cigarette,724.0,maverick,naturallight,maverick
cret03,1.0,601.0,1.0,601.0,1.0,0.0,0.0,0.0,0.0,768.33402191,naturallight,alcohol,767.0,naturallight,naturallight,maverick
cret03,1.0,183.0,1.0,183.0,1.0,0.0,0.0,0.0,0.0,897.18877595,naturallight,alcohol,896.0,naturallight,naturallight,maverick
cret03,2.0,2001.0,1.0,2001.0,1.0,0.0,0.0,0.0,0.0,2011.65489486,budweiser,alcohol,2011.0,budweiser,naturallight,maverick
cret03,1.0,195.0,1.0,0.0,0.0,0.0,0.0,195.0,1.0,968.144572913,waterbottle,neutral,967.0,waterbottle,naturallight,maverick
cret03,1.0,333.0,0.728665207877,333.0,0.728665207877,0.0,0.0,124.0,0.271334792123,819.561319343,selzter,neutral,819.0,naturallight,naturallight,maverick
cret03,1.0,0.0,0.0,0.0,0.0,0.0,0.0,1202.0,1.0,1518.40084104,waterbottle,neutral,1518.0,naturallight,naturallight,maverick
cret03,1.0,0.0,0.0,0.0,0.0,759.0,1.0,0.0,0.0,760.273361851,maverick,cigarette,759.0,waterglass,naturallight,maverick
cret03,1.0,0.0,0.0,0.0,0.0,302.0,1.0,0.0,0.0,822.312502029,maverick,cigarette,822.0,naturallight,naturallight,maverick
cret03,4.0,249.0,0.541304347826,249.0,0.541304347826,211.0,0.458695652174,0.0,0.0,1133.66882663,heineken,alcohol,1132.0,heineken,naturallight,maverick
cret03,2.0,396.0,0.263824117255,367.0,0.244503664224,738.0,0.491672218521,396.0,0.263824117255,1594.39019546,selzter,neutral,1594.0,selzter,naturallight,maverick
cret03,1.0,1032.0,1.0,1032.0,1.0,0.0,0.0,0.0,0.0,1339.18603964,naturallight,alcohol,1339.0,naturallight,naturallight,maverick
cret03,3.0,300.0,1.0,300.0,1.0,0.0,0.0,0.0,0.0,729.753172536,naturallight,alcohol,729.0,naturallight,naturallight,maverick
cret03,3.0,330.0,0.268292682927,330.0,0.268292682927,472.0,0.383739837398,428.0,0.347967479675,1801.08042515,waterbottle,neutral,1800.0,naturallight,naturallight,maverick
cret03,3.0,204.0,1.0,204.0,1.0,0.0,0.0,0.0,0.0,1428.99899555,naturallight,alcohol,1428.0,naturallight,naturallight,maverick
cret03,2.0,443.0,0.372895622896,340.0,0.286195286195,443.0,0.372895622896,405.0,0.340909090909,1452.68747821,jackdaniels,alcohol,1222.0,maverick,naturallight,maverick
cret03,2.0,0.0,0.0,0.0,0.0,0.0,0.0,206.0,1.0,941.929907037,selzter,neutral,941.0,maverick,naturallight,maverick
cret03,4.0,85.0,0.293103448276,0.0,0.0,205.0,0.706896551724,85.0,0.293103448276,779.633848972,waterbottle,neutral,780.0,waterbottle,naturallight,maverick
cret03,1.0,10.0,0.0196463654224,375.0,0.73673870334,10.0,0.0196463654224,124.0,0.243614931238,1519.34812344,waterglass,neutral,1519.0,maverick,naturallight,maverick
cret03,4.0,312.0,0.157496214033,699.0,0.352852094902,970.0,0.489651691065,312.0,0.157496214033,2274.18657363,skyy,alcohol,2274.0,waterbottle,naturallight,maverick
cret03,2.0,736.0,0.552552552553,736.0,0.552552552553,0.0,0.0,596.0,0.447447447447,1697.27629968,heineken,alcohol,1696.0,heineken,naturallight,maverick
cret03,1.0,388.0,1.0,388.0,1.0,0.0,0.0,0.0,0.0,857.65003,naturallight,alcohol,857.0,naturallight,naturallight,maverick
cret03,2.0,457.0,0.522285714286,418.0,0.477714285714,457.0,0.522285714286,0.0,0.0,885.037466912,maverick,cigarette,885.0,maverick,naturallight,maverick
cret03,1.0,364.0,0.612794612795,230.0,0.387205387205,364.0,0.612794612795,0.0,0.0,853.124925707,maverick,cigarette,852.0,maverick,naturallight,maverick
cret03,1.0,790.0,0.444569499156,790.0,0.444569499156,583.0,0.328081035453,404.0,0.227349465391,2179.28259076,naturallight,alcohol,2178.0,naturallight,naturallight,maverick
cret03,4.0,377.0,0.204557786218,377.0,0.204557786218,953.0,0.517091698318,513.0,0.278350515464,1954.8666522,jimbeam,alcohol,1954.0,jimbeam,naturallight,maverick
cret03,3.0,221.0,1.0,221.0,1.0,0.0,0.0,0.0,0.0,708.726173687,naturallight,alcohol,453.0,naturallight,naturallight,maverick
cret03,1.0,0.0,0.0,0.0,0.0,268.0,1.0,0.0,0.0,2303.79672511,maverick,cigarette,1493.0,naturallight,naturallight,maverick
cret03,3.0,0.0,0.0,0.0,0.0,129.0,1.0,0.0,0.0,622.588838419,luckystrike,cigarette,622.0,naturallight,naturallight,maverick
cret03,1.0,0.0,0.0,0.0,0.0,0.0,0.0,41.0,1.0,1109.63207688,selzter,neutral,817.0,naturallight,naturallight,maverick
cret03,4.0,19.0,1.0,19.0,1.0,0.0,0.0,0.0,0.0,2167.00915126,josecuervo,alcohol,1993.0,josecuervo,naturallight,maverick
cret03,1.0,0.0,0.0,0.0,0.0,0.0,0.0,189.0,1.0,1598.26070171,waterbottle,neutral,889.0,naturallight,naturallight,maverick
cret03,1.0,0.0,0.0,333.0,1.0,0.0,0.0,0.0,0.0,780.350528344,naturallight,alcohol,779.0,selzter,naturallight,maverick
cret03,2.0,439.0,0.369839932603,411.0,0.346251053075,337.0,0.283909014322,439.0,0.369839932603,1405.92747037,waterbottle,neutral,1405.0,waterbottle,naturallight,maverick
cret03,3.0,920.0,0.689655172414,920.0,0.689655172414,0.0,0.0,414.0,0.310344827586,1775.68913736,naturallight,alcohol,1775.0,naturallight,naturallight,maverick
cret03,1.0,1414.0,1.0,1414.0,1.0,0.0,0.0,0.0,0.0,2129.50104469,naturallight,alcohol,2128.0,naturallight,naturallight,maverick
cret03,1.0,500.0,1.0,0.0,0.0,500.0,1.0,0.0,0.0,777.700896809,maverick,cigarette,776.0,maverick,naturallight,maverick
cret03,1.0,432.0,1.0,432.0,1.0,0.0,0.0,0.0,0.0,627.850208938,naturallight,alcohol,627.0,naturallight,naturallight,maverick
cret03,2.0,447.0,0.991130820399,0.0,0.0,447.0,0.991130820399,4.0,0.00886917960089,731.464356352,waterglass,neutral,731.0,maverick,naturallight,maverick
cret03,1.0,396.0,1.0,396.0,1.0,0.0,0.0,0.0,0.0,730.226828734,naturallight,alcohol,730.0,naturallight,naturallight,maverick
cret03,1.0,165.0,1.0,0.0,0.0,165.0,1.0,0.0,0.0,482.725397228,maverick,cigarette,482.0,maverick,naturallight,maverick
cret03,1.0,13.0,1.0,13.0,1.0,0.0,0.0,0.0,0.0,1377.71677502,naturallight,alcohol,1377.0,naturallight,naturallight,maverick
cret03,2.0,0.0,0.0,390.0,1.0,0.0,0.0,0.0,0.0,852.651611503,josecuervo,alcohol,852.0,maverick,naturallight,maverick
cret03,1.0,600.0,0.625,600.0,0.625,0.0,0.0,360.0,0.375,1270.44007193,naturallight,alcohol,1269.0,naturallight,naturallight,maverick
cret03,2.0,0.0,0.0,996.0,0.83,0.0,0.0,204.0,0.17,1533.58528612,bacardi,alcohol,1533.0,maverick,naturallight,maverick
cret03,4.0,605.0,0.7478368356,204.0,0.2521631644,0.0,0.0,605.0,0.7478368356,1044.86015254,selzter,neutral,1044.0,selzter,naturallight,maverick
cret04,1.0,1252.0,1.0,1252.0,1.0,0.0,0.0,0.0,0.0,1286.05934806,kahlua,alcohol,1261.0,kahlua,kahlua,marlboro
cret04,2.0,347.0,0.363731656184,416.0,0.43605870021,347.0,0.363731656184,191.0,0.200209643606,1202.13841291,marlboro,cigarette,1202.0,marlboro,kahlua,marlboro
cret04,4.0,607.0,0.465490797546,525.0,0.402607361963,172.0,0.131901840491,607.0,0.465490797546,1532.06489128,waterbottle,neutral,1531.0,waterbottle,kahlua,marlboro
cret04,1.0,272.0,0.415902140673,190.0,0.290519877676,272.0,0.415902140673,192.0,0.293577981651,958.446277755,kahlua,alcohol,958.0,marlboro,kahlua,marlboro
cret04,1.0,379.0,0.435632183908,379.0,0.435632183908,491.0,0.564367816092,0.0,0.0,1075.13589648,kahlua,alcohol,1074.0,kahlua,kahlua,marlboro
cret04,1.0,419.0,0.801147227533,419.0,0.801147227533,104.0,0.198852772467,0.0,0.0,790.24122935,kahlua,alcohol,789.0,kahlua,kahlua,marlboro
cret04,1.0,817.0,1.0,817.0,1.0,0.0,0.0,0.0,0.0,817.495054653,kahlua,alcohol,816.0,kahlua,kahlua,marlboro
cret04,1.0,485.0,0.594362745098,485.0,0.594362745098,108.0,0.132352941176,223.0,0.273284313725,1092.29136647,marlboro,cigarette,1091.0,kahlua,kahlua,marlboro
cret04,3.0,445.0,1.0,445.0,1.0,0.0,0.0,0.0,0.0,680.538615854,kahlua,alcohol,680.0,kahlua,kahlua,marlboro
cret04,3.0,520.0,0.627261761158,520.0,0.627261761158,309.0,0.372738238842,0.0,0.0,1020.36275813,kahlua,alcohol,1019.0,kahlua,kahlua,marlboro
cret04,1.0,303.0,0.236533957845,978.0,0.763466042155,303.0,0.236533957845,0.0,0.0,1736.51930422,kahlua,alcohol,1736.0,marlboro,kahlua,marlboro
cret04,3.0,463.0,0.761513157895,463.0,0.761513157895,145.0,0.238486842105,0.0,0.0,816.488366503,luckystrike,cigarette,815.0,kahlua,kahlua,marlboro
cret04,3.0,486.0,1.0,486.0,1.0,0.0,0.0,0.0,0.0,676.571020376,kahlua,alcohol,676.0,kahlua,kahlua,marlboro
cret04,1.0,347.0,1.0,347.0,1.0,0.0,0.0,0.0,0.0,592.992665977,kahlua,alcohol,592.0,kahlua,kahlua,marlboro
cret04,1.0,531.0,0.586092715232,531.0,0.586092715232,0.0,0.0,375.0,0.413907284768,912.910413042,kahlua,alcohol,913.0,kahlua,kahlua,marlboro
cret04,1.0,357.0,1.0,0.0,0.0,357.0,1.0,0.0,0.0,656.453874713,marlboro,cigarette,656.0,marlboro,kahlua,marlboro
cret04,1.0,264.0,0.567741935484,264.0,0.567741935484,201.0,0.432258064516,0.0,0.0,741.208528712,kahlua,alcohol,741.0,kahlua,kahlua,marlboro
cret04,1.0,439.0,0.735343383585,439.0,0.735343383585,0.0,0.0,158.0,0.264656616415,785.078640982,kahlua,alcohol,785.0,kahlua,kahlua,marlboro
cret04,2.0,310.0,0.412782956059,215.0,0.286284953395,310.0,0.412782956059,226.0,0.300932090546,995.705411224,marlboro,cigarette,995.0,marlboro,kahlua,marlboro
cret04,3.0,293.0,0.487520798669,293.0,0.487520798669,308.0,0.512479201331,0.0,0.0,880.613139831,kahlua,alcohol,880.0,kahlua,kahlua,marlboro
cret04,3.0,260.0,0.377906976744,260.0,0.377906976744,219.0,0.318313953488,209.0,0.303779069767,1001.23019973,camelcrush,cigarette,1000.0,kahlua,kahlua,marlboro
cret04,1.0,313.0,0.626,313.0,0.626,187.0,0.374,0.0,0.0,765.429954436,kahlua,alcohol,765.0,kahlua,kahlua,marlboro
cret04,2.0,248.0,0.242661448141,550.0,0.538160469667,248.0,0.242661448141,224.0,0.219178082192,1053.10506958,marlboro,cigarette,1053.0,marlboro,kahlua,marlboro
cret04,4.0,499.0,0.342015078821,297.0,0.20356408499,499.0,0.342015078821,663.0,0.454420836189,1663.13045031,waterglass,neutral,1662.0,newport,kahlua,marlboro
cret04,1.0,234.0,0.522321428571,0.0,0.0,234.0,0.522321428571,214.0,0.477678571429,665.583449743,marlboro,cigarette,664.0,marlboro,kahlua,marlboro
cret04,3.0,431.0,0.907368421053,431.0,0.907368421053,44.0,0.0926315789474,0.0,0.0,711.434226028,newport,cigarette,711.0,kahlua,kahlua,marlboro
cret04,3.0,328.0,0.437333333333,328.0,0.437333333333,14.0,0.0186666666667,408.0,0.544,771.031391947,luckystrike,cigarette,770.0,kahlua,kahlua,marlboro
cret04,1.0,670.0,0.824108241082,670.0,0.824108241082,143.0,0.175891758918,0.0,0.0,1108.82993044,kahlua,alcohol,1108.0,kahlua,kahlua,marlboro
cret04,4.0,200.0,0.238663484487,277.0,0.330548926014,200.0,0.238663484487,361.0,0.430787589499,851.532122173,luckystrike,cigarette,850.0,luckystrike,kahlua,marlboro
cret04,2.0,265.0,0.323565323565,366.0,0.446886446886,265.0,0.323565323565,188.0,0.229548229548,1048.54662257,newamsterdam,alcohol,1048.0,marlboro,kahlua,marlboro
cret04,2.0,257.0,0.356449375867,464.0,0.643550624133,257.0,0.356449375867,0.0,0.0,986.971405429,naturallight,alcohol,986.0,marlboro,kahlua,marlboro
cret04,1.0,243.0,0.578571428571,243.0,0.578571428571,177.0,0.421428571429,0.0,0.0,633.435391424,kahlua,alcohol,632.0,kahlua,kahlua,marlboro
cret04,1.0,262.0,0.637469586375,262.0,0.637469586375,149.0,0.362530413625,0.0,0.0,688.046993862,kahlua,alcohol,687.0,kahlua,kahlua,marlboro
cret04,1.0,433.0,0.871227364185,433.0,0.871227364185,64.0,0.128772635815,0.0,0.0,772.400919048,marlboro,cigarette,772.0,kahlua,kahlua,marlboro
cret04,1.0,222.0,0.301630434783,222.0,0.301630434783,295.0,0.400815217391,219.0,0.297554347826,1281.16890099,waterbottle,neutral,983.0,kahlua,kahlua,marlboro
cret04,2.0,584.0,0.506065857886,247.0,0.21403812825,584.0,0.506065857886,323.0,0.279896013865,1422.8148491,marlboro,cigarette,1422.0,marlboro,kahlua,marlboro
cret04,4.0,365.0,0.239816031537,331.0,0.217477003942,826.0,0.54270696452,365.0,0.239816031537,1798.8761196,waterglass,neutral,1798.0,waterglass,kahlua,marlboro
cret04,2.0,206.0,0.298984034833,238.0,0.345428156749,206.0,0.298984034833,245.0,0.355587808418,951.104688764,marlboro,cigarette,951.0,marlboro,kahlua,marlboro
cret04,1.0,385.0,0.510610079576,385.0,0.510610079576,253.0,0.335543766578,116.0,0.153846153846,976.79527312,selzter,neutral,976.0,kahlua,kahlua,marlboro
cret04,1.0,441.0,0.818181818182,441.0,0.818181818182,0.0,0.0,98.0,0.181818181818,759.623085583,waterbottle,neutral,759.0,kahlua,kahlua,marlboro
cret04,4.0,409.0,0.227855153203,1030.0,0.573816155989,356.0,0.198328690808,409.0,0.227855153203,1834.83822904,waterglass,neutral,1834.0,waterglass,kahlua,marlboro
cret04,1.0,410.0,0.493975903614,410.0,0.493975903614,256.0,0.30843373494,164.0,0.197590361446,1106.58091354,waterglass,neutral,1106.0,kahlua,kahlua,marlboro
cret04,1.0,334.0,0.360302049622,334.0,0.360302049622,451.0,0.486515641855,142.0,0.153182308522,951.471151668,kahlua,alcohol,951.0,kahlua,kahlua,marlboro
cret04,3.0,449.0,1.0,449.0,1.0,0.0,0.0,0.0,0.0,627.958005483,kahlua,alcohol,628.0,kahlua,kahlua,marlboro
cret04,2.0,624.0,0.479631053036,340.0,0.261337432744,624.0,0.479631053036,337.0,0.25903151422,1333.00964929,marlboro,cigarette,1332.0,marlboro,kahlua,marlboro
cret04,1.0,541.0,0.764124293785,167.0,0.235875706215,541.0,0.764124293785,0.0,0.0,715.881590826,kahlua,alcohol,715.0,marlboro,kahlua,marlboro
cret04,1.0,296.0,0.280568720379,296.0,0.280568720379,246.0,0.23317535545,513.0,0.486255924171,1071.65438471,kahlua,alcohol,1071.0,kahlua,kahlua,marlboro
cret04,2.0,347.0,0.52655538695,312.0,0.47344461305,347.0,0.52655538695,0.0,0.0,882.793865609,marlboro,cigarette,882.0,marlboro,kahlua,marlboro
cret04,1.0,408.0,0.78612716763,408.0,0.78612716763,111.0,0.21387283237,0.0,0.0,757.006057451,marlboro,cigarette,756.0,kahlua,kahlua,marlboro
cret04,1.0,678.0,1.0,678.0,1.0,0.0,0.0,0.0,0.0,677.714833573,kahlua,alcohol,677.0,kahlua,kahlua,marlboro
cret04,1.0,536.0,0.545269582909,536.0,0.545269582909,447.0,0.454730417091,0.0,0.0,996.261463204,kahlua,alcohol,995.0,kahlua,kahlua,marlboro
cret04,1.0,437.0,0.711726384365,437.0,0.711726384365,177.0,0.288273615635,0.0,0.0,880.877214413,kahlua,alcohol,880.0,kahlua,kahlua,marlboro
cret04,3.0,248.0,1.0,248.0,1.0,0.0,0.0,0.0,0.0,474.916674842,kahlua,alcohol,474.0,kahlua,kahlua,marlboro
cret04,1.0,472.0,1.0,472.0,1.0,0.0,0.0,0.0,0.0,685.975592669,kahlua,alcohol,686.0,kahlua,kahlua,marlboro
cret04,2.0,252.0,0.284745762712,403.0,0.455367231638,252.0,0.284745762712,230.0,0.25988700565,1243.34580482,sutter,alcohol,1243.0,marlboro,kahlua,marlboro
cret04,3.0,402.0,1.0,402.0,1.0,0.0,0.0,0.0,0.0,638.957755958,kahlua,alcohol,638.0,kahlua,kahlua,marlboro
cret04,1.0,389.0,0.727102803738,389.0,0.727102803738,146.0,0.272897196262,0.0,0.0,754.645276826,kahlua,alcohol,754.0,kahlua,kahlua,marlboro
cret04,1.0,537.0,0.60953461975,537.0,0.60953461975,344.0,0.39046538025,0.0,0.0,888.208771534,kahlua,alcohol,888.0,kahlua,kahlua,marlboro
cret04,1.0,265.0,0.534274193548,231.0,0.465725806452,265.0,0.534274193548,0.0,0.0,702.681434475,marlboro,cigarette,702.0,marlboro,kahlua,marlboro
cret04,2.0,275.0,0.309336332958,329.0,0.370078740157,275.0,0.309336332958,285.0,0.320584926884,1123.57297282,marlboro,cigarette,1122.0,marlboro,kahlua,marlboro
cret04,1.0,726.0,0.539776951673,726.0,0.539776951673,619.0,0.460223048327,0.0,0.0,1607.60197574,marlboro,cigarette,1607.0,kahlua,kahlua,marlboro
cret04,1.0,413.0,0.720767888307,413.0,0.720767888307,160.0,0.279232111693,0.0,0.0,772.598112848,kahlua,alcohol,772.0,kahlua,kahlua,marlboro
cret04,4.0,178.0,0.299663299663,308.0,0.518518518519,178.0,0.299663299663,108.0,0.181818181818,826.899888119,waterglass,neutral,826.0,newport,kahlua,marlboro
cret04,4.0,420.0,0.362068965517,295.0,0.254310344828,445.0,0.383620689655,420.0,0.362068965517,1406.90579381,luckystrike,cigarette,1407.0,waterbottle,kahlua,marlboro
cret04,3.0,422.0,0.974595842956,422.0,0.974595842956,0.0,0.0,11.0,0.0254041570439,687.278757803,selzter,neutral,686.0,kahlua,kahlua,marlboro
cret04,3.0,356.0,0.588429752066,356.0,0.588429752066,97.0,0.160330578512,152.0,0.251239669421,798.883964326,camelcrush,cigarette,798.0,kahlua,kahlua,marlboro
cret04,2.0,397.0,0.336726039016,198.0,0.167938931298,397.0,0.336726039016,584.0,0.495335029686,1189.96796324,marlboro,cigarette,1190.0,marlboro,kahlua,marlboro
cret04,1.0,476.0,0.657458563536,476.0,0.657458563536,248.0,0.342541436464,0.0,0.0,948.30898259,kahlua,alcohol,948.0,kahlua,kahlua,marlboro
cret04,1.0,349.0,0.527190332326,349.0,0.527190332326,313.0,0.472809667674,0.0,0.0,893.944430132,marlboro,cigarette,893.0,kahlua,kahlua,marlboro
cret04,3.0,394.0,1.0,394.0,1.0,0.0,0.0,0.0,0.0,673.02924821,kahlua,alcohol,672.0,kahlua,kahlua,marlboro
cret04,3.0,547.0,1.0,547.0,1.0,0.0,0.0,0.0,0.0,546.710998917,kahlua,alcohol,546.0,kahlua,kahlua,marlboro
cret04,3.0,261.0,0.601382488479,261.0,0.601382488479,0.0,0.0,173.0,0.398617511521,615.502157854,kahlua,alcohol,615.0,kahlua,kahlua,marlboro
cret04,2.0,230.0,0.329512893983,175.0,0.250716332378,230.0,0.329512893983,293.0,0.419770773639,864.63773457,marlboro,cigarette,864.0,marlboro,kahlua,marlboro
cret04,1.0,348.0,0.591836734694,348.0,0.591836734694,240.0,0.408163265306,0.0,0.0,805.195259001,kahlua,alcohol,804.0,kahlua,kahlua,marlboro
cret04,2.0,223.0,0.454175152749,268.0,0.545824847251,223.0,0.454175152749,0.0,0.0,718.140333243,marlboro,cigarette,717.0,marlboro,kahlua,marlboro
cret04,1.0,315.0,1.0,315.0,1.0,0.0,0.0,0.0,0.0,535.606192625,kahlua,alcohol,535.0,kahlua,kahlua,marlboro
cret04,4.0,702.0,0.463978849967,417.0,0.275611368143,702.0,0.463978849967,394.0,0.26040978189,1744.89646499,camelcrush,cigarette,1745.0,camelcrush,kahlua,marlboro
cret04,1.0,500.0,0.796178343949,500.0,0.796178343949,0.0,0.0,128.0,0.203821656051,864.36928922,waterglass,neutral,863.0,kahlua,kahlua,marlboro
cret04,4.0,328.0,0.323790720632,392.0,0.386969397828,328.0,0.323790720632,293.0,0.28923988154,1304.52361675,newport,cigarette,1304.0,newport,kahlua,marlboro
cret04,1.0,0.0,0.0,418.0,1.0,0.0,0.0,0.0,0.0,797.975726078,kahlua,alcohol,797.0,marlboro,kahlua,marlboro
cret04,2.0,354.0,0.546296296296,354.0,0.546296296296,294.0,0.453703703704,0.0,0.0,837.749388536,skyy,alcohol,837.0,skyy,kahlua,marlboro
cret04,2.0,311.0,0.475535168196,311.0,0.475535168196,343.0,0.524464831804,0.0,0.0,853.474839854,heineken,alcohol,852.0,heineken,kahlua,marlboro
cret04,3.0,362.0,0.752598752599,362.0,0.752598752599,0.0,0.0,119.0,0.247401247401,698.562397782,kahlua,alcohol,698.0,kahlua,kahlua,marlboro
cret04,2.0,678.0,0.584987057808,205.0,0.176876617774,678.0,0.584987057808,276.0,0.238136324418,1184.7706805,marlboro,cigarette,1184.0,marlboro,kahlua,marlboro
cret04,1.0,307.0,0.424033149171,307.0,0.424033149171,367.0,0.506906077348,50.0,0.0690607734807,739.235844241,selzter,neutral,739.0,kahlua,kahlua,marlboro
cret04,2.0,219.0,0.335889570552,433.0,0.664110429448,219.0,0.335889570552,0.0,0.0,877.131160067,newamsterdam,alcohol,877.0,marlboro,kahlua,marlboro
cret04,3.0,296.0,1.0,296.0,1.0,0.0,0.0,0.0,0.0,517.07739441,kahlua,alcohol,516.0,kahlua,kahlua,marlboro
cret04,3.0,249.0,1.0,249.0,1.0,0.0,0.0,0.0,0.0,484.572635061,kahlua,alcohol,484.0,kahlua,kahlua,marlboro
cret04,1.0,467.0,0.510382513661,467.0,0.510382513661,118.0,0.128961748634,330.0,0.360655737705,933.932181819,kahlua,alcohol,934.0,kahlua,kahlua,marlboro
cret04,4.0,300.0,0.506756756757,300.0,0.506756756757,262.0,0.442567567568,30.0,0.0506756756757,844.337855277,selzter,neutral,844.0,sutter,kahlua,marlboro
cret04,1.0,0.0,0.0,358.0,1.0,0.0,0.0,0.0,0.0,751.626463894,kahlua,alcohol,666.0,marlboro,kahlua,marlboro
cret04,1.0,242.0,1.0,242.0,1.0,0.0,0.0,0.0,0.0,467.247634089,kahlua,alcohol,467.0,kahlua,kahlua,marlboro
cret04,2.0,602.0,0.668146503885,299.0,0.331853496115,602.0,0.668146503885,0.0,0.0,1091.82758729,marlboro,cigarette,1091.0,marlboro,kahlua,marlboro
cret04,1.0,375.0,1.0,375.0,1.0,0.0,0.0,0.0,0.0,597.670151446,kahlua,alcohol,597.0,kahlua,kahlua,marlboro
cret04,1.0,346.0,0.508076358297,346.0,0.508076358297,335.0,0.491923641703,0.0,0.0,691.191345994,kahlua,alcohol,690.0,kahlua,kahlua,marlboro
cret04,2.0,85.0,0.154264972777,344.0,0.624319419238,85.0,0.154264972777,122.0,0.221415607985,837.706411094,selzter,neutral,836.0,marlboro,kahlua,marlboro
cret04,2.0,434.0,0.51179245283,297.0,0.350235849057,434.0,0.51179245283,117.0,0.137971698113,1077.72408298,selzter,neutral,1077.0,marlboro,kahlua,marlboro
cret04,3.0,273.0,1.0,273.0,1.0,0.0,0.0,0.0,0.0,502.153628364,kahlua,alcohol,502.0,kahlua,kahlua,marlboro
cret04,1.0,362.0,1.0,362.0,1.0,0.0,0.0,0.0,0.0,581.728306928,kahlua,alcohol,581.0,kahlua,kahlua,marlboro
cret04,1.0,246.0,0.58432304038,246.0,0.58432304038,4.0,0.00950118764846,171.0,0.406175771971,615.380107434,marlboro,cigarette,615.0,kahlua,kahlua,marlboro
cret04,1.0,254.0,1.0,254.0,1.0,0.0,0.0,0.0,0.0,454.768587935,kahlua,alcohol,454.0,kahlua,kahlua,marlboro
cret04,1.0,285.0,1.0,285.0,1.0,0.0,0.0,0.0,0.0,451.187701923,kahlua,alcohol,450.0,kahlua,kahlua,marlboro
cret04,4.0,433.0,0.242034656233,914.0,0.510899944103,433.0,0.242034656233,442.0,0.247065399665,1820.3519265,selzter,neutral,1819.0,luckystrike,kahlua,marlboro
cret04,1.0,297.0,0.355263157895,297.0,0.355263157895,416.0,0.497607655502,123.0,0.147129186603,930.160846623,selzter,neutral,929.0,kahlua,kahlua,marlboro
cret04,4.0,295.0,0.301944728762,426.0,0.436028659161,295.0,0.301944728762,256.0,0.262026612078,1204.06886711,newport,cigarette,1203.0,newport,kahlua,marlboro
cret04,1.0,379.0,0.462195121951,379.0,0.462195121951,241.0,0.293902439024,200.0,0.243902439024,1057.71265313,selzter,neutral,1057.0,kahlua,kahlua,marlboro
cret04,1.0,550.0,1.0,550.0,1.0,0.0,0.0,0.0,0.0,550.281102715,kahlua,alcohol,549.0,kahlua,kahlua,marlboro
cret04,3.0,533.0,0.796711509716,533.0,0.796711509716,0.0,0.0,136.0,0.203288490284,677.974003394,waterglass,neutral,676.0,kahlua,kahlua,marlboro
cret04,3.0,390.0,0.690265486726,390.0,0.690265486726,175.0,0.309734513274,0.0,0.0,777.371911892,kahlua,alcohol,776.0,kahlua,kahlua,marlboro
cret04,1.0,0.0,0.0,419.0,1.0,0.0,0.0,0.0,0.0,664.382268113,kahlua,alcohol,663.0,waterbottle,kahlua,marlboro
cret04,1.0,440.0,1.0,440.0,1.0,0.0,0.0,0.0,0.0,615.27703759,kahlua,alcohol,614.0,kahlua,kahlua,marlboro
cret04,1.0,347.0,0.517910447761,347.0,0.517910447761,232.0,0.346268656716,91.0,0.135820895522,845.827228,waterglass,neutral,845.0,kahlua,kahlua,marlboro
cret04,1.0,314.0,0.463810930576,314.0,0.463810930576,0.0,0.0,363.0,0.536189069424,925.473461286,kahlua,alcohol,925.0,kahlua,kahlua,marlboro
cret04,4.0,387.0,0.328244274809,369.0,0.312977099237,387.0,0.328244274809,423.0,0.358778625954,1200.41319524,newport,cigarette,1200.0,newport,kahlua,marlboro
cret04,1.0,853.0,1.0,853.0,1.0,0.0,0.0,0.0,0.0,1028.6372214,kahlua,alcohol,1028.0,kahlua,kahlua,marlboro
cret04,1.0,449.0,1.0,449.0,1.0,0.0,0.0,0.0,0.0,540.097392504,kahlua,alcohol,539.0,kahlua,kahlua,marlboro
cret04,3.0,419.0,1.0,419.0,1.0,0.0,0.0,0.0,0.0,642.077850758,kahlua,alcohol,641.0,kahlua,kahlua,marlboro
cret04,3.0,400.0,0.433839479393,400.0,0.433839479393,227.0,0.246203904555,295.0,0.319956616052,935.895707584,kahlua,alcohol,935.0,kahlua,kahlua,marlboro
cret04,1.0,455.0,0.527842227378,455.0,0.527842227378,407.0,0.472157772622,0.0,0.0,874.589871779,kahlua,alcohol,874.0,kahlua,kahlua,marlboro
cret04,2.0,308.0,0.693693693694,136.0,0.306306306306,308.0,0.693693693694,0.0,0.0,690.064038936,marlboro,cigarette,689.0,marlboro,kahlua,marlboro
cret04,3.0,384.0,0.41245972073,384.0,0.41245972073,265.0,0.284640171858,282.0,0.302900107411,1150.90959388,kahlua,alcohol,1150.0,kahlua,kahlua,marlboro
cret04,3.0,282.0,1.0,282.0,1.0,0.0,0.0,0.0,0.0,480.460945093,kahlua,alcohol,480.0,kahlua,kahlua,marlboro
cret04,2.0,148.0,0.142170989433,438.0,0.420749279539,148.0,0.142170989433,455.0,0.437079731028,1276.67396351,marlboro,cigarette,1276.0,marlboro,kahlua,marlboro
cret04,1.0,247.0,0.400974025974,130.0,0.211038961039,247.0,0.400974025974,239.0,0.387987012987,855.518272589,kahlua,alcohol,855.0,marlboro,kahlua,marlboro
cret04,2.0,568.0,0.583162217659,144.0,0.147843942505,568.0,0.583162217659,262.0,0.268993839836,1216.89193716,selzter,neutral,1217.0,marlboro,kahlua,marlboro
cret04,4.0,644.0,0.444137931034,382.0,0.263448275862,644.0,0.444137931034,424.0,0.292413793103,1487.83730681,maverick,cigarette,1487.0,maverick,kahlua,marlboro
cret04,1.0,567.0,0.504,567.0,0.504,260.0,0.231111111111,298.0,0.264888888889,1142.44948136,kahlua,alcohol,1141.0,kahlua,kahlua,marlboro
cret04,3.0,353.0,0.921671018277,353.0,0.921671018277,30.0,0.0783289817232,0.0,0.0,541.38238105,kahlua,alcohol,541.0,kahlua,kahlua,marlboro
cret04,1.0,491.0,1.0,491.0,1.0,0.0,0.0,0.0,0.0,701.052938726,kahlua,alcohol,700.0,kahlua,kahlua,marlboro
cret04,4.0,407.0,0.3371996686,334.0,0.27671913836,407.0,0.3371996686,466.0,0.386081193041,1360.78571383,newport,cigarette,1360.0,newport,kahlua,marlboro
cret04,3.0,320.0,0.300751879699,320.0,0.300751879699,468.0,0.43984962406,276.0,0.259398496241,1107.37627525,kahlua,alcohol,1106.0,kahlua,kahlua,marlboro
cret04,2.0,282.0,0.292531120332,269.0,0.279045643154,282.0,0.292531120332,413.0,0.428423236515,994.492782094,marlboro,cigarette,993.0,marlboro,kahlua,marlboro
cret04,1.0,387.0,0.852422907489,387.0,0.852422907489,0.0,0.0,67.0,0.147577092511,648.69068318,kahlua,alcohol,648.0,kahlua,kahlua,marlboro
cret04,1.0,252.0,1.0,252.0,1.0,0.0,0.0,0.0,0.0,504.733451333,kahlua,alcohol,504.0,kahlua,kahlua,marlboro
cret04,2.0,0.0,0.0,490.0,0.559360730594,0.0,0.0,386.0,0.440639269406,1071.53807621,selzter,neutral,1071.0,marlboro,kahlua,marlboro
cret04,4.0,420.0,0.523690773067,259.0,0.322942643392,420.0,0.523690773067,123.0,0.153366583541,1088.17866569,selzter,neutral,1088.0,americanspirit,kahlua,marlboro
cret04,2.0,211.0,0.259213759214,483.0,0.593366093366,211.0,0.259213759214,120.0,0.14742014742,1048.65579716,waterglass,neutral,1048.0,marlboro,kahlua,marlboro
cret04,1.0,141.0,0.354271356784,257.0,0.645728643216,141.0,0.354271356784,0.0,0.0,679.989140141,marlboro,cigarette,679.0,marlboro,kahlua,marlboro
cret04,3.0,475.0,0.684438040346,475.0,0.684438040346,5.0,0.00720461095101,214.0,0.308357348703,890.059591582,americanspirit,cigarette,889.0,kahlua,kahlua,marlboro
cret04,1.0,421.0,1.0,421.0,1.0,0.0,0.0,0.0,0.0,611.839400079,kahlua,alcohol,611.0,kahlua,kahlua,marlboro
cret04,2.0,319.0,0.349780701754,369.0,0.404605263158,319.0,0.349780701754,224.0,0.245614035088,941.457011262,marlboro,cigarette,941.0,marlboro,kahlua,marlboro
cret04,1.0,677.0,0.909946236559,677.0,0.909946236559,0.0,0.0,67.0,0.0900537634409,824.788212271,selzter,neutral,824.0,kahlua,kahlua,marlboro
cret04,1.0,565.0,1.0,565.0,1.0,0.0,0.0,0.0,0.0,565.630052906,kahlua,alcohol,564.0,kahlua,kahlua,marlboro
cret04,1.0,645.0,0.801242236025,645.0,0.801242236025,0.0,0.0,160.0,0.198757763975,829.818670347,waterglass,neutral,817.0,kahlua,kahlua,marlboro
cret04,1.0,428.0,0.620289855072,428.0,0.620289855072,0.0,0.0,262.0,0.379710144928,772.892159866,kahlua,alcohol,772.0,kahlua,kahlua,marlboro
cret04,1.0,431.0,0.513706793802,431.0,0.513706793802,0.0,0.0,408.0,0.486293206198,846.759471935,kahlua,alcohol,845.0,kahlua,kahlua,marlboro
cret04,1.0,339.0,0.666011787819,170.0,0.333988212181,339.0,0.666011787819,0.0,0.0,775.160529687,kahlua,alcohol,775.0,marlboro,kahlua,marlboro
cret04,1.0,362.0,0.454773869347,362.0,0.454773869347,434.0,0.545226130653,0.0,0.0,805.878952977,kahlua,alcohol,805.0,kahlua,kahlua,marlboro
cret04,1.0,315.0,0.596590909091,315.0,0.596590909091,213.0,0.403409090909,0.0,0.0,755.351482863,kahlua,alcohol,755.0,kahlua,kahlua,marlboro
cret05,1.0,672.0,0.910569105691,66.0,0.0894308943089,672.0,0.910569105691,0.0,0.0,980.240943181,skyy,alcohol,980.0,newport,skyy,newport
cret05,1.0,254.0,0.17397260274,650.0,0.445205479452,254.0,0.17397260274,556.0,0.380821917808,1691.89188499,waterbottle,neutral,1691.0,newport,skyy,newport
cret05,3.0,1398.0,0.420577617329,1398.0,0.420577617329,483.0,0.145306859206,1443.0,0.434115523466,3642.67335736,skyy,alcohol,3643.0,skyy,skyy,newport
cret05,4.0,1211.0,0.553979871912,1211.0,0.553979871912,687.0,0.314272644099,288.0,0.131747483989,2498.54532309,newamsterdam,alcohol,2498.0,newamsterdam,skyy,newport
cret05,2.0,0.0,0.0,452.0,0.5877763329,0.0,0.0,317.0,0.4122236671,957.539905202,selzter,neutral,957.0,newport,skyy,newport
cret05,1.0,249.0,0.345353675451,236.0,0.327323162275,249.0,0.345353675451,236.0,0.327323162275,908.550851806,selzter,neutral,908.0,newport,skyy,newport
cret05,3.0,508.0,0.340254521098,508.0,0.340254521098,336.0,0.225050234427,649.0,0.434695244474,1681.88286152,selzter,neutral,1681.0,skyy,skyy,newport
cret05,3.0,342.0,0.434010152284,342.0,0.434010152284,223.0,0.282994923858,223.0,0.282994923858,945.93331451,americanspirit,cigarette,945.0,skyy,skyy,newport
cret05,4.0,496.0,0.231127679404,666.0,0.310344827586,984.0,0.45852749301,496.0,0.231127679404,2307.95069899,waterglass,neutral,2307.0,waterglass,skyy,newport
cret05,1.0,379.0,0.187716691431,1230.0,0.609212481426,379.0,0.187716691431,410.0,0.203070827142,2211.80041399,skyy,alcohol,2211.0,newport,skyy,newport
cret05,1.0,281.0,0.395218002813,314.0,0.441631504923,281.0,0.395218002813,116.0,0.163150492264,757.227530273,waterbottle,neutral,757.0,newport,skyy,newport
cret05,1.0,272.0,0.318128654971,583.0,0.681871345029,272.0,0.318128654971,0.0,0.0,965.220222772,skyy,alcohol,965.0,newport,skyy,newport
cret05,1.0,319.0,0.262119967132,898.0,0.737880032868,319.0,0.262119967132,0.0,0.0,1412.58117238,newport,cigarette,1411.0,newport,skyy,newport
cret05,1.0,170.0,0.191226096738,418.0,0.470191226097,170.0,0.191226096738,301.0,0.338582677165,1107.13669527,selzter,neutral,1106.0,newport,skyy,newport
cret05,1.0,229.0,0.264739884393,315.0,0.364161849711,229.0,0.264739884393,321.0,0.371098265896,1029.47580248,selzter,neutral,1028.0,newport,skyy,newport
cret05,2.0,1075.0,0.43,348.0,0.1392,1075.0,0.43,1077.0,0.4308,2694.1964329,newport,cigarette,2694.0,newport,skyy,newport
cret05,2.0,1302.0,0.36717428088,1302.0,0.36717428088,732.0,0.206429780034,1512.0,0.426395939086,3718.31798764,bacardi,alcohol,3718.0,bacardi,skyy,newport
cret05,4.0,418.0,0.188543076229,1496.0,0.674785746504,303.0,0.136671177267,418.0,0.188543076229,2379.27034859,sutter,alcohol,2378.0,waterglass,skyy,newport
cret05,3.0,307.0,0.300391389432,307.0,0.300391389432,512.0,0.500978473581,203.0,0.198630136986,1229.37782162,selzter,neutral,1229.0,skyy,skyy,newport
cret05,1.0,684.0,0.303730017762,400.0,0.177619893428,684.0,0.303730017762,1168.0,0.51865008881,2442.3361461,selzter,neutral,2441.0,newport,skyy,newport
cret05,4.0,1047.0,0.731656184486,1047.0,0.731656184486,306.0,0.213836477987,78.0,0.0545073375262,1697.68141237,selzter,neutral,1697.0,greygoose,skyy,newport
cret05,1.0,515.0,0.444348576359,515.0,0.444348576359,215.0,0.18550474547,429.0,0.370146678171,1343.51551251,newport,cigarette,1343.0,skyy,skyy,newport
cret05,1.0,608.0,0.495517522412,608.0,0.495517522412,252.0,0.205378973105,367.0,0.299103504482,1397.79171734,skyy,alcohol,1397.0,skyy,skyy,newport
cret05,4.0,555.0,0.200868621064,739.0,0.267462902642,1469.0,0.531668476294,555.0,0.200868621064,2939.71002262,selzter,neutral,2939.0,selzter,skyy,newport
cret05,3.0,384.0,0.427616926503,384.0,0.427616926503,293.0,0.326280623608,221.0,0.246102449889,1055.85099898,waterglass,neutral,1055.0,skyy,skyy,newport
cret05,1.0,824.0,0.578651685393,824.0,0.578651685393,273.0,0.191713483146,327.0,0.229634831461,1654.78101038,newport,cigarette,1654.0,skyy,skyy,newport
cret05,3.0,460.0,0.402449693788,460.0,0.402449693788,260.0,0.227471566054,423.0,0.370078740157,1330.46089561,waterbottle,neutral,1329.0,skyy,skyy,newport
cret05,3.0,361.0,0.383634431456,361.0,0.383634431456,219.0,0.232731137088,361.0,0.383634431456,1134.87578448,waterbottle,neutral,1134.0,skyy,skyy,newport
cret05,1.0,375.0,0.399786780384,375.0,0.399786780384,257.0,0.273987206823,306.0,0.326226012793,1113.85611088,newport,cigarette,1113.0,skyy,skyy,newport
cret05,1.0,312.0,0.48,312.0,0.48,189.0,0.290769230769,149.0,0.229230769231,847.543303957,waterglass,neutral,846.0,skyy,skyy,newport
cret05,3.0,226.0,0.298546895641,226.0,0.298546895641,317.0,0.418758256275,214.0,0.282694848085,881.967654647,selzter,neutral,881.0,skyy,skyy,newport
cret05,2.0,295.0,0.260600706714,489.0,0.431978798587,295.0,0.260600706714,348.0,0.3074204947,1289.69652607,newport,cigarette,1289.0,newport,skyy,newport
cret05,2.0,187.0,0.257931034483,273.0,0.376551724138,187.0,0.257931034483,265.0,0.365517241379,934.956554869,captainmorgan,alcohol,934.0,newport,skyy,newport
cret05,1.0,470.0,0.427272727273,365.0,0.331818181818,470.0,0.427272727273,265.0,0.240909090909,1363.18968338,newport,cigarette,1357.0,newport,skyy,newport
cret05,2.0,415.0,0.422177009156,414.0,0.421159715158,415.0,0.422177009156,154.0,0.156663275687,1210.67952523,newport,cigarette,1210.0,newport,skyy,newport
cret05,4.0,1101.0,0.461635220126,1101.0,0.461635220126,313.0,0.131236897275,971.0,0.4071278826,2523.86628667,greygoose,alcohol,2523.0,greygoose,skyy,newport
cret05,1.0,783.0,0.617021276596,783.0,0.617021276596,239.0,0.188337273444,247.0,0.194641449961,1448.90317394,skyy,alcohol,1448.0,skyy,skyy,newport
cret05,3.0,408.0,0.380242311277,408.0,0.380242311277,295.0,0.274930102516,370.0,0.344827586207,1306.81491888,selzter,neutral,1306.0,skyy,skyy,newport
cret05,1.0,317.0,0.578467153285,317.0,0.578467153285,48.0,0.0875912408759,183.0,0.333941605839,764.003953921,newport,cigarette,763.0,skyy,skyy,newport
cret05,1.0,617.0,0.576635514019,617.0,0.576635514019,229.0,0.214018691589,224.0,0.209345794393,1233.91559969,waterglass,neutral,1233.0,skyy,skyy,newport
cret05,3.0,259.0,0.322942643392,259.0,0.322942643392,384.0,0.478802992519,159.0,0.19825436409,982.374626507,maverick,cigarette,982.0,skyy,skyy,newport
cret05,2.0,546.0,0.718421052632,546.0,0.718421052632,0.0,0.0,214.0,0.281578947368,901.365197873,selzter,neutral,901.0,greygoose,skyy,newport
cret05,1.0,317.0,0.503174603175,317.0,0.503174603175,99.0,0.157142857143,214.0,0.339682539683,783.337172433,newport,cigarette,783.0,skyy,skyy,newport
cret05,3.0,333.0,0.52523659306,333.0,0.52523659306,201.0,0.317034700315,100.0,0.157728706625,823.600083998,waterglass,neutral,823.0,skyy,skyy,newport
cret05,1.0,226.0,0.42641509434,226.0,0.42641509434,304.0,0.57358490566,0.0,0.0,762.256156053,newport,cigarette,761.0,skyy,skyy,newport
cret05,2.0,397.0,0.468713105077,450.0,0.531286894923,397.0,0.468713105077,0.0,0.0,1004.5437783,newport,cigarette,1004.0,newport,skyy,newport
cret05,1.0,389.0,0.660441426146,0.0,0.0,389.0,0.660441426146,200.0,0.339558573854,735.726879463,newport,cigarette,735.0,newport,skyy,newport
cret05,4.0,379.0,0.489032258065,379.0,0.489032258065,0.0,0.0,396.0,0.510967741935,1056.84180999,waterbottle,neutral,1057.0,greygoose,skyy,newport
cret05,2.0,450.0,0.410209662716,411.0,0.374658158614,450.0,0.410209662716,236.0,0.215132178669,1260.49328613,newport,cigarette,1260.0,newport,skyy,newport
cret05,1.0,337.0,0.369923161361,337.0,0.369923161361,0.0,0.0,574.0,0.630076838639,1182.11833563,selzter,neutral,1181.0,skyy,skyy,newport
cret05,1.0,215.0,0.592286501377,215.0,0.592286501377,14.0,0.0385674931129,134.0,0.36914600551,583.73933839,newport,cigarette,583.0,skyy,skyy,newport
cret05,1.0,199.0,0.381957773512,199.0,0.381957773512,167.0,0.320537428023,155.0,0.297504798464,674.718548453,waterglass,neutral,674.0,skyy,skyy,newport
cret05,3.0,584.0,0.830725462304,584.0,0.830725462304,119.0,0.169274537696,0.0,0.0,714.015197696,maverick,cigarette,713.0,skyy,skyy,newport
cret05,1.0,208.0,0.693333333333,208.0,0.693333333333,92.0,0.306666666667,0.0,0.0,468.369256615,newport,cigarette,468.0,skyy,skyy,newport
cret05,3.0,174.0,0.491525423729,174.0,0.491525423729,34.0,0.0960451977401,146.0,0.412429378531,523.240823184,americanspirit,cigarette,522.0,skyy,skyy,newport
cret05,2.0,995.0,1.0,995.0,1.0,0.0,0.0,0.0,0.0,1074.6698746,newamsterdam,alcohol,1073.0,newamsterdam,skyy,newport
cret05,2.0,1190.0,1.0,1190.0,1.0,0.0,0.0,0.0,0.0,1197.33601728,smirnoff,alcohol,1197.0,smirnoff,skyy,newport
cret05,3.0,546.0,0.669117647059,546.0,0.669117647059,58.0,0.0710784313725,212.0,0.259803921569,949.31484688,americanspirit,cigarette,949.0,skyy,skyy,newport
cret05,3.0,260.0,0.261832829809,260.0,0.261832829809,500.0,0.503524672709,233.0,0.234642497482,1041.93506648,selzter,neutral,1041.0,skyy,skyy,newport
cret05,4.0,648.0,0.505854800937,413.0,0.322404371585,220.0,0.171740827479,648.0,0.505854800937,1424.3898542,selzter,neutral,1424.0,selzter,skyy,newport
cret05,2.0,674.0,0.607754733995,167.0,0.150586113616,674.0,0.607754733995,268.0,0.24165915239,1320.15749403,newport,cigarette,1319.0,newport,skyy,newport
cret05,4.0,628.0,0.334042553191,433.0,0.230319148936,819.0,0.435638297872,628.0,0.334042553191,2096.89019302,americanspirit,cigarette,2096.0,waterbottle,skyy,newport
cret05,1.0,251.0,0.403536977492,251.0,0.403536977492,371.0,0.596463022508,0.0,0.0,784.76665549,newport,cigarette,784.0,skyy,skyy,newport
cret05,1.0,282.0,0.346863468635,282.0,0.346863468635,191.0,0.234932349323,340.0,0.418204182042,830.360673963,newport,cigarette,830.0,skyy,skyy,newport
cret05,1.0,336.0,0.625698324022,336.0,0.625698324022,0.0,0.0,201.0,0.374301675978,687.003566752,waterbottle,neutral,686.0,skyy,skyy,newport
cret05,3.0,193.0,0.330479452055,193.0,0.330479452055,194.0,0.332191780822,197.0,0.337328767123,766.885336293,skyy,alcohol,766.0,skyy,skyy,newport
cret05,4.0,510.0,0.498046875,310.0,0.302734375,204.0,0.19921875,510.0,0.498046875,1193.55753603,waterbottle,neutral,1193.0,waterbottle,skyy,newport
cret05,2.0,500.0,0.317258883249,443.0,0.281091370558,633.0,0.401649746193,500.0,0.317258883249,1714.58344351,newport,cigarette,1714.0,selzter,skyy,newport
cret05,1.0,327.0,0.40570719603,0.0,0.0,327.0,0.40570719603,479.0,0.59429280397,957.449694183,waterglass,neutral,957.0,newport,skyy,newport
cret05,1.0,153.0,0.308467741935,0.0,0.0,153.0,0.308467741935,343.0,0.691532258065,771.451548146,waterbottle,neutral,770.0,newport,skyy,newport
cret05,1.0,149.0,0.299196787149,349.0,0.700803212851,149.0,0.299196787149,0.0,0.0,749.627866619,skyy,alcohol,749.0,newport,skyy,newport
cret05,1.0,521.0,0.747489239598,521.0,0.747489239598,176.0,0.252510760402,0.0,0.0,887.278838423,skyy,alcohol,887.0,skyy,skyy,newport
cret05,3.0,390.0,0.551626591231,390.0,0.551626591231,90.0,0.12729844413,227.0,0.321074964639,931.092472974,camelcrush,cigarette,931.0,skyy,skyy,newport
cret05,1.0,425.0,0.582990397805,425.0,0.582990397805,304.0,0.417009602195,0.0,0.0,899.764642707,newport,cigarette,899.0,skyy,skyy,newport
cret05,3.0,246.0,0.51356993737,246.0,0.51356993737,63.0,0.131524008351,170.0,0.35490605428,614.49248815,luckystrike,cigarette,614.0,skyy,skyy,newport
cret05,1.0,368.0,0.657142857143,368.0,0.657142857143,192.0,0.342857142857,0.0,0.0,720.10680104,skyy,alcohol,719.0,skyy,skyy,newport
cret05,1.0,323.0,0.729119638826,323.0,0.729119638826,120.0,0.270880361174,0.0,0.0,645.641849163,skyy,alcohol,645.0,skyy,skyy,newport
cret05,3.0,170.0,0.322580645161,170.0,0.322580645161,245.0,0.464895635674,112.0,0.212523719165,736.109461811,marlboro,cigarette,735.0,skyy,skyy,newport
cret05,1.0,0.0,0.0,355.0,0.723014256619,0.0,0.0,136.0,0.276985743381,689.534238139,skyy,alcohol,688.0,newport,skyy,newport
cret05,4.0,560.0,0.765027322404,560.0,0.765027322404,0.0,0.0,172.0,0.234972677596,865.92919824,bacardi,alcohol,865.0,bacardi,skyy,newport
cret05,1.0,375.0,0.614754098361,235.0,0.385245901639,375.0,0.614754098361,0.0,0.0,803.408201836,newport,cigarette,803.0,newport,skyy,newport
cret05,4.0,342.0,0.291560102302,457.0,0.389599317988,374.0,0.31884057971,342.0,0.291560102302,1405.49173534,naturallight,alcohol,1404.0,waterglass,skyy,newport
cret05,1.0,398.0,0.493184634449,266.0,0.329615861214,398.0,0.493184634449,143.0,0.177199504337,987.512233755,waterbottle,neutral,986.0,newport,skyy,newport
cret05,4.0,303.0,0.317277486911,503.0,0.526701570681,149.0,0.156020942408,303.0,0.317277486911,1271.37005178,josecuervo,alcohol,1270.0,selzter,skyy,newport
cret05,1.0,758.0,1.0,758.0,1.0,0.0,0.0,0.0,0.0,948.159278815,skyy,alcohol,948.0,skyy,skyy,newport
cret05,1.0,367.0,0.577044025157,265.0,0.416666666667,367.0,0.577044025157,4.0,0.0062893081761,817.658867646,waterbottle,neutral,817.0,newport,skyy,newport
cret05,1.0,512.0,0.798751950078,512.0,0.798751950078,129.0,0.201248049922,0.0,0.0,876.562428751,skyy,alcohol,876.0,skyy,skyy,newport
cret05,2.0,154.0,0.451612903226,187.0,0.548387096774,154.0,0.451612903226,0.0,0.0,650.955858883,naturallight,alcohol,650.0,newport,skyy,newport
cret05,1.0,371.0,0.739043824701,131.0,0.260956175299,371.0,0.739043824701,0.0,0.0,759.768587805,skyy,alcohol,759.0,newport,skyy,newport
cret05,3.0,282.0,0.626666666667,282.0,0.626666666667,0.0,0.0,168.0,0.373333333333,582.824632684,selzter,neutral,583.0,skyy,skyy,newport
cret05,1.0,353.0,0.678846153846,353.0,0.678846153846,167.0,0.321153846154,0.0,0.0,714.775643664,skyy,alcohol,714.0,skyy,skyy,newport
cret05,4.0,513.0,0.465940054496,287.0,0.260672116258,301.0,0.273387829246,513.0,0.465940054496,1388.44872503,waterglass,neutral,1388.0,waterglass,skyy,newport
cret05,1.0,221.0,0.627840909091,221.0,0.627840909091,131.0,0.372159090909,0.0,0.0,567.083389156,newport,cigarette,566.0,skyy,skyy,newport
cret05,3.0,357.0,0.611301369863,357.0,0.611301369863,158.0,0.270547945205,69.0,0.118150684932,787.299907178,waterbottle,neutral,786.0,skyy,skyy,newport
cret05,2.0,353.0,0.524517087667,146.0,0.216939078752,353.0,0.524517087667,174.0,0.258543833581,904.289722205,josecuervo,alcohol,903.0,newport,skyy,newport
cret05,1.0,272.0,0.692111959288,272.0,0.692111959288,121.0,0.307888040712,0.0,0.0,556.380968381,newport,cigarette,556.0,skyy,skyy,newport
cret05,3.0,176.0,0.578947368421,176.0,0.578947368421,128.0,0.421052631579,0.0,0.0,554.187418252,marlboro,cigarette,553.0,skyy,skyy,newport
cret05,1.0,237.0,0.589552238806,237.0,0.589552238806,0.0,0.0,165.0,0.410447761194,580.309641807,skyy,alcohol,579.0,skyy,skyy,newport
cret05,4.0,480.0,0.26286966046,743.0,0.406900328587,603.0,0.330230010953,480.0,0.26286966046,2019.31029897,luckystrike,cigarette,2019.0,selzter,skyy,newport
cret05,3.0,241.0,0.513859275053,0.0,0.0,228.0,0.486140724947,241.0,0.513859275053,692.579792404,americanspirit,cigarette,692.0,waterglass,skyy,newport
cret05,2.0,515.0,0.649432534678,191.0,0.240857503153,515.0,0.649432534678,87.0,0.109709962169,968.576405295,selzter,neutral,967.0,newport,skyy,newport
cret05,1.0,380.0,0.716981132075,380.0,0.716981132075,150.0,0.283018867925,0.0,0.0,742.148446207,skyy,alcohol,741.0,skyy,skyy,newport
cret05,2.0,0.0,0.0,296.0,1.0,0.0,0.0,0.0,0.0,717.799574008,corona,alcohol,717.0,newport,skyy,newport
cret05,1.0,467.0,1.0,467.0,1.0,0.0,0.0,0.0,0.0,657.052688123,skyy,alcohol,656.0,skyy,skyy,newport
cret05,2.0,101.0,0.182310469314,453.0,0.817689530686,101.0,0.182310469314,0.0,0.0,721.991626991,newport,cigarette,722.0,newport,skyy,newport
cret05,1.0,232.0,0.655367231638,232.0,0.655367231638,122.0,0.344632768362,0.0,0.0,607.18698026,newport,cigarette,606.0,skyy,skyy,newport
cret05,2.0,272.0,0.461799660441,0.0,0.0,272.0,0.461799660441,317.0,0.538200339559,841.459074818,selzter,neutral,841.0,newport,skyy,newport
cret05,2.0,244.0,0.606965174129,0.0,0.0,244.0,0.606965174129,158.0,0.393034825871,749.822922365,selzter,neutral,749.0,newport,skyy,newport
cret05,1.0,416.0,0.693333333333,416.0,0.693333333333,184.0,0.306666666667,0.0,0.0,783.103987097,skyy,alcohol,782.0,skyy,skyy,newport
cret05,2.0,260.0,0.439189189189,332.0,0.560810810811,260.0,0.439189189189,0.0,0.0,782.172958541,newport,cigarette,781.0,newport,skyy,newport
cret05,3.0,283.0,0.644646924829,283.0,0.644646924829,156.0,0.355353075171,0.0,0.0,616.975229672,skyy,alcohol,616.0,skyy,skyy,newport
cret05,1.0,283.0,0.344282238443,539.0,0.655717761557,283.0,0.344282238443,0.0,0.0,1040.56391355,skyy,alcohol,1040.0,newport,skyy,newport
cret05,2.0,0.0,0.0,232.0,0.361370716511,0.0,0.0,410.0,0.638629283489,824.199942825,waterglass,neutral,823.0,newport,skyy,newport
cret05,1.0,291.0,0.616525423729,291.0,0.616525423729,181.0,0.383474576271,0.0,0.0,604.654700906,skyy,alcohol,604.0,skyy,skyy,newport
cret05,2.0,432.0,0.557419354839,432.0,0.557419354839,343.0,0.442580645161,0.0,0.0,957.692761321,smirnoff,alcohol,956.0,smirnoff,skyy,newport
cret05,1.0,414.0,1.0,414.0,1.0,0.0,0.0,0.0,0.0,563.681670367,skyy,alcohol,563.0,skyy,skyy,newport
cret05,3.0,175.0,0.714285714286,175.0,0.714285714286,0.0,0.0,70.0,0.285714285714,434.01680284,waterbottle,neutral,433.0,skyy,skyy,newport
cret05,1.0,165.0,0.632183908046,165.0,0.632183908046,96.0,0.367816091954,0.0,0.0,428.920396416,newport,cigarette,428.0,skyy,skyy,newport
cret05,4.0,431.0,0.44024514811,162.0,0.165474974464,386.0,0.394279877426,431.0,0.44024514811,1166.13697126,maverick,cigarette,1165.0,waterglass,skyy,newport
cret05,1.0,215.0,0.47149122807,241.0,0.52850877193,215.0,0.47149122807,0.0,0.0,638.778304434,skyy,alcohol,638.0,newport,skyy,newport
cret05,4.0,332.0,0.834170854271,0.0,0.0,66.0,0.165829145729,332.0,0.834170854271,757.854544909,selzter,neutral,757.0,selzter,skyy,newport
cret05,2.0,141.0,0.344743276284,268.0,0.655256723716,141.0,0.344743276284,0.0,0.0,791.031472194,jimbeam,alcohol,790.0,newport,skyy,newport
cret05,3.0,586.0,0.585414585415,586.0,0.585414585415,239.0,0.238761238761,176.0,0.175824175824,1197.38608345,skyy,alcohol,1197.0,skyy,skyy,newport
cret05,1.0,502.0,1.0,502.0,1.0,0.0,0.0,0.0,0.0,712.378604428,skyy,alcohol,712.0,skyy,skyy,newport
cret05,1.0,204.0,0.621951219512,204.0,0.621951219512,0.0,0.0,124.0,0.378048780488,528.714297714,waterbottle,neutral,528.0,skyy,skyy,newport
cret05,1.0,458.0,0.617250673854,458.0,0.617250673854,0.0,0.0,284.0,0.382749326146,961.193078962,skyy,alcohol,961.0,skyy,skyy,newport
cret05,1.0,426.0,1.0,426.0,1.0,0.0,0.0,0.0,0.0,623.339230039,skyy,alcohol,623.0,skyy,skyy,newport
cret05,3.0,180.0,0.5,180.0,0.5,180.0,0.5,0.0,0.0,559.394423288,skyy,alcohol,559.0,skyy,skyy,newport
cret05,3.0,181.0,0.527696793003,181.0,0.527696793003,0.0,0.0,162.0,0.472303206997,536.74748305,selzter,neutral,536.0,skyy,skyy,newport
cret05,2.0,158.0,0.21265141319,203.0,0.273216689098,158.0,0.21265141319,382.0,0.514131897712,928.940196372,waterglass,neutral,928.0,newport,skyy,newport
cret05,2.0,0.0,0.0,0.0,0.0,0.0,0.0,150.0,1.0,623.781250375,waterglass,neutral,623.0,newport,skyy,newport
cret05,2.0,160.0,0.435967302452,207.0,0.564032697548,160.0,0.435967302452,0.0,0.0,616.939374389,corona,alcohol,617.0,newport,skyy,newport
cret05,1.0,453.0,0.703416149068,453.0,0.703416149068,191.0,0.296583850932,0.0,0.0,861.747159057,skyy,alcohol,853.0,skyy,skyy,newport
cret05,4.0,482.0,0.670375521558,482.0,0.670375521558,155.0,0.215577190542,82.0,0.1140472879,961.601787964,selzter,neutral,961.0,greygoose,skyy,newport
cret05,1.0,296.0,0.452599388379,296.0,0.452599388379,358.0,0.547400611621,0.0,0.0,664.723465531,skyy,alcohol,664.0,skyy,skyy,newport
cret05,3.0,342.0,0.890625,342.0,0.890625,0.0,0.0,42.0,0.109375,590.200663163,waterbottle,neutral,590.0,skyy,skyy,newport
cret05,4.0,363.0,0.345385347288,254.0,0.241674595623,434.0,0.412940057088,363.0,0.345385347288,1185.82278154,waterglass,neutral,1185.0,waterglass,skyy,newport
cret05,1.0,421.0,0.830374753452,0.0,0.0,421.0,0.830374753452,86.0,0.169625246548,707.42548749,selzter,neutral,707.0,newport,skyy,newport
cret05,3.0,236.0,0.632707774799,236.0,0.632707774799,137.0,0.367292225201,0.0,0.0,574.303524753,americanspirit,cigarette,573.0,skyy,skyy,newport
cret05,1.0,338.0,0.664047151277,338.0,0.664047151277,171.0,0.335952848723,0.0,0.0,615.691768165,skyy,alcohol,615.0,skyy,skyy,newport
cret05,2.0,1030.0,1.0,1030.0,1.0,0.0,0.0,0.0,0.0,1074.35097216,newamsterdam,alcohol,1073.0,newamsterdam,skyy,newport
cret05,1.0,529.0,0.756795422031,529.0,0.756795422031,170.0,0.243204577969,0.0,0.0,855.931379372,skyy,alcohol,855.0,skyy,skyy,newport
cret05,4.0,770.0,0.806282722513,770.0,0.806282722513,185.0,0.193717277487,0.0,0.0,1092.44014837,newamsterdam,alcohol,1092.0,newamsterdam,skyy,newport
cret05,1.0,442.0,1.0,442.0,1.0,0.0,0.0,0.0,0.0,658.280458391,skyy,alcohol,657.0,skyy,skyy,newport
cret05,3.0,348.0,1.0,348.0,1.0,0.0,0.0,0.0,0.0,560.821722742,skyy,alcohol,560.0,skyy,skyy,newport
cret05,1.0,285.0,0.659722222222,285.0,0.659722222222,147.0,0.340277777778,0.0,0.0,617.308297834,newport,cigarette,616.0,skyy,skyy,newport
cret05,1.0,275.0,0.586353944563,275.0,0.586353944563,194.0,0.413646055437,0.0,0.0,615.587937418,skyy,alcohol,615.0,skyy,skyy,newport
cret05,1.0,319.0,0.645748987854,319.0,0.645748987854,175.0,0.354251012146,0.0,0.0,680.531346196,newport,cigarette,680.0,skyy,skyy,newport
cret05,1.0,329.0,0.668699186992,329.0,0.668699186992,163.0,0.331300813008,0.0,0.0,615.520306418,skyy,alcohol,614.0,skyy,skyy,newport
cret05,2.0,373.0,0.47095959596,373.0,0.47095959596,193.0,0.243686868687,226.0,0.285353535354,999.983209512,smirnoff,alcohol,999.0,smirnoff,skyy,newport
cret05,3.0,251.0,0.593380614657,251.0,0.593380614657,172.0,0.406619385343,0.0,0.0,576.249661007,skyy,alcohol,576.0,skyy,skyy,newport
cret06,1.0,391.0,1.0,391.0,1.0,0.0,0.0,0.0,0.0,545.856051981,brandy,alcohol,544.0,brandy,brandy,newport
cret06,1.0,432.0,1.0,432.0,1.0,0.0,0.0,0.0,0.0,482.853105313,brandy,alcohol,482.0,brandy,brandy,newport
cret06,1.0,205.0,0.497572815534,205.0,0.497572815534,0.0,0.0,207.0,0.502427184466,591.162005668,brandy,alcohol,590.0,brandy,brandy,newport
cret06,1.0,370.0,1.0,370.0,1.0,0.0,0.0,0.0,0.0,566.379845555,brandy,alcohol,566.0,brandy,brandy,newport
cret06,1.0,0.0,0.0,0.0,0.0,258.0,1.0,0.0,0.0,435.609062706,newport,cigarette,435.0,brandy,brandy,newport
cret06,1.0,241.0,1.0,241.0,1.0,0.0,0.0,0.0,0.0,395.491043881,brandy,alcohol,394.0,brandy,brandy,newport
cret06,1.0,280.0,0.620842572062,280.0,0.620842572062,171.0,0.379157427938,0.0,0.0,623.184512082,brandy,alcohol,623.0,brandy,brandy,newport
cret06,1.0,298.0,1.0,298.0,1.0,0.0,0.0,0.0,0.0,483.915283567,brandy,alcohol,483.0,brandy,brandy,newport
cret06,1.0,217.0,1.0,217.0,1.0,0.0,0.0,0.0,0.0,388.343048384,brandy,alcohol,388.0,brandy,brandy,newport
cret06,1.0,278.0,0.613686534216,278.0,0.613686534216,175.0,0.386313465784,0.0,0.0,640.359428172,brandy,alcohol,639.0,brandy,brandy,newport
cret06,1.0,279.0,1.0,279.0,1.0,0.0,0.0,0.0,0.0,456.080881776,brandy,alcohol,455.0,brandy,brandy,newport
cret06,1.0,234.0,1.0,234.0,1.0,0.0,0.0,0.0,0.0,456.456884911,brandy,alcohol,456.0,brandy,brandy,newport
cret06,1.0,210.0,1.0,210.0,1.0,0.0,0.0,0.0,0.0,416.941951104,brandy,alcohol,416.0,brandy,brandy,newport
cret06,1.0,182.0,1.0,182.0,1.0,0.0,0.0,0.0,0.0,385.755845865,brandy,alcohol,385.0,brandy,brandy,newport
cret06,1.0,201.0,0.527559055118,201.0,0.527559055118,180.0,0.472440944882,0.0,0.0,565.652327793,brandy,alcohol,565.0,brandy,brandy,newport
cret06,1.0,97.0,0.249357326478,97.0,0.249357326478,292.0,0.750642673522,0.0,0.0,589.339721251,brandy,alcohol,589.0,brandy,brandy,newport
cret06,1.0,267.0,1.0,267.0,1.0,0.0,0.0,0.0,0.0,467.063586471,brandy,alcohol,466.0,brandy,brandy,newport
cret06,1.0,288.0,1.0,288.0,1.0,0.0,0.0,0.0,0.0,498.963430826,brandy,alcohol,499.0,brandy,brandy,newport
cret06,1.0,269.0,1.0,269.0,1.0,0.0,0.0,0.0,0.0,445.976784536,brandy,alcohol,445.0,brandy,brandy,newport
cret06,1.0,311.0,1.0,311.0,1.0,0.0,0.0,0.0,0.0,481.027886933,brandy,alcohol,481.0,brandy,brandy,newport
cret06,1.0,265.0,1.0,265.0,1.0,0.0,0.0,0.0,0.0,500.259708051,brandy,alcohol,499.0,brandy,brandy,newport
cret06,1.0,260.0,1.0,260.0,1.0,0.0,0.0,0.0,0.0,465.495441118,brandy,alcohol,465.0,brandy,brandy,newport
cret06,1.0,577.0,0.769333333333,577.0,0.769333333333,173.0,0.230666666667,0.0,0.0,921.268424526,brandy,alcohol,921.0,brandy,brandy,newport
cret06,1.0,282.0,1.0,282.0,1.0,0.0,0.0,0.0,0.0,492.938275975,brandy,alcohol,492.0,brandy,brandy,newport
cret06,1.0,215.0,0.544303797468,215.0,0.544303797468,180.0,0.455696202532,0.0,0.0,480.66805959,brandy,alcohol,480.0,brandy,brandy,newport
cret06,1.0,274.0,1.0,274.0,1.0,0.0,0.0,0.0,0.0,453.931415594,brandy,alcohol,453.0,brandy,brandy,newport
cret06,1.0,315.0,1.0,315.0,1.0,0.0,0.0,0.0,0.0,492.191612461,brandy,alcohol,492.0,brandy,brandy,newport
cret06,1.0,238.0,1.0,0.0,0.0,238.0,1.0,0.0,0.0,553.014286521,newport,cigarette,413.0,newport,brandy,newport
cret06,1.0,555.0,0.752032520325,555.0,0.752032520325,0.0,0.0,183.0,0.247967479675,978.210381983,brandy,alcohol,978.0,brandy,brandy,newport
cret06,1.0,199.0,1.0,199.0,1.0,0.0,0.0,0.0,0.0,386.46714266,brandy,alcohol,385.0,brandy,brandy,newport
cret06,1.0,216.0,1.0,216.0,1.0,0.0,0.0,0.0,0.0,398.631703237,brandy,alcohol,397.0,brandy,brandy,newport
cret06,1.0,326.0,0.626923076923,326.0,0.626923076923,194.0,0.373076923077,0.0,0.0,788.023156877,brandy,alcohol,787.0,brandy,brandy,newport
cret06,1.0,250.0,1.0,250.0,1.0,0.0,0.0,0.0,0.0,513.360697685,brandy,alcohol,512.0,brandy,brandy,newport
cret06,1.0,295.0,1.0,295.0,1.0,0.0,0.0,0.0,0.0,476.114373696,brandy,alcohol,475.0,brandy,brandy,newport
cret06,1.0,323.0,0.684322033898,323.0,0.684322033898,149.0,0.315677966102,0.0,0.0,697.462237194,brandy,alcohol,697.0,brandy,brandy,newport
cret06,1.0,371.0,1.0,371.0,1.0,0.0,0.0,0.0,0.0,549.056077392,brandy,alcohol,549.0,brandy,brandy,newport
cret06,1.0,192.0,1.0,192.0,1.0,0.0,0.0,0.0,0.0,376.050827459,brandy,alcohol,375.0,brandy,brandy,newport
cret06,1.0,208.0,1.0,208.0,1.0,0.0,0.0,0.0,0.0,393.001511274,brandy,alcohol,392.0,brandy,brandy,newport
cret06,1.0,39.0,0.186602870813,170.0,0.813397129187,39.0,0.186602870813,0.0,0.0,431.092569978,brandy,alcohol,430.0,newport,brandy,newport
cret06,1.0,215.0,0.570291777188,215.0,0.570291777188,0.0,0.0,162.0,0.429708222812,577.67182507,brandy,alcohol,577.0,brandy,brandy,newport
cret06,1.0,409.0,1.0,409.0,1.0,0.0,0.0,0.0,0.0,571.557505374,brandy,alcohol,571.0,brandy,brandy,newport
cret06,1.0,200.0,0.383877159309,200.0,0.383877159309,0.0,0.0,321.0,0.616122840691,530.166371847,brandy,alcohol,529.0,brandy,brandy,newport
cret06,1.0,213.0,0.557591623037,213.0,0.557591623037,169.0,0.442408376963,0.0,0.0,559.365678326,brandy,alcohol,559.0,brandy,brandy,newport
cret06,1.0,300.0,1.0,300.0,1.0,0.0,0.0,0.0,0.0,516.56865817,brandy,alcohol,516.0,brandy,brandy,newport
cret06,1.0,278.0,1.0,278.0,1.0,0.0,0.0,0.0,0.0,505.362582014,brandy,alcohol,504.0,brandy,brandy,newport
cret06,1.0,281.0,1.0,281.0,1.0,0.0,0.0,0.0,0.0,489.377832052,brandy,alcohol,489.0,brandy,brandy,newport
cret06,1.0,180.0,1.0,180.0,1.0,0.0,0.0,0.0,0.0,438.916459904,brandy,alcohol,438.0,brandy,brandy,newport
cret06,1.0,328.0,1.0,328.0,1.0,0.0,0.0,0.0,0.0,567.558175953,brandy,alcohol,566.0,brandy,brandy,newport
cret06,1.0,262.0,0.696808510638,262.0,0.696808510638,114.0,0.303191489362,0.0,0.0,558.002945609,brandy,alcohol,557.0,brandy,brandy,newport
cret06,1.0,238.0,0.573493975904,238.0,0.573493975904,0.0,0.0,177.0,0.426506024096,634.850818284,brandy,alcohol,634.0,brandy,brandy,newport
cret06,1.0,247.0,0.562642369021,247.0,0.562642369021,192.0,0.437357630979,0.0,0.0,636.103332075,brandy,alcohol,635.0,brandy,brandy,newport
cret06,1.0,219.0,1.0,219.0,1.0,0.0,0.0,0.0,0.0,463.368885461,brandy,alcohol,462.0,brandy,brandy,newport
cret06,1.0,114.0,0.390410958904,114.0,0.390410958904,178.0,0.609589041096,0.0,0.0,480.088638265,brandy,alcohol,479.0,brandy,brandy,newport
cret06,1.0,104.0,0.4046692607,153.0,0.5953307393,104.0,0.4046692607,0.0,0.0,553.513953701,brandy,alcohol,553.0,newport,brandy,newport
cret06,1.0,369.0,1.0,369.0,1.0,0.0,0.0,0.0,0.0,943.131364771,brandy,alcohol,942.0,brandy,brandy,newport
cret06,1.0,194.0,1.0,194.0,1.0,0.0,0.0,0.0,0.0,527.524171217,brandy,alcohol,527.0,brandy,brandy,newport
cret06,1.0,719.0,1.0,719.0,1.0,0.0,0.0,0.0,0.0,911.845627645,brandy,alcohol,911.0,brandy,brandy,newport
cret06,1.0,395.0,0.712996389892,395.0,0.712996389892,159.0,0.287003610108,0.0,0.0,755.603125606,brandy,alcohol,755.0,brandy,brandy,newport
cret06,1.0,210.0,1.0,210.0,1.0,0.0,0.0,0.0,0.0,431.208389656,brandy,alcohol,431.0,brandy,brandy,newport
cret06,1.0,259.0,1.0,259.0,1.0,0.0,0.0,0.0,0.0,541.680283196,brandy,alcohol,541.0,brandy,brandy,newport
cret06,1.0,198.0,1.0,198.0,1.0,0.0,0.0,0.0,0.0,418.263833174,brandy,alcohol,418.0,brandy,brandy,newport
cret06,1.0,250.0,1.0,250.0,1.0,0.0,0.0,0.0,0.0,494.923803104,brandy,alcohol,495.0,brandy,brandy,newport
cret06,1.0,282.0,1.0,282.0,1.0,0.0,0.0,0.0,0.0,529.257269965,brandy,alcohol,528.0,brandy,brandy,newport
cret06,1.0,253.0,1.0,253.0,1.0,0.0,0.0,0.0,0.0,490.144486954,brandy,alcohol,490.0,brandy,brandy,newport
cret06,1.0,140.0,0.595744680851,140.0,0.595744680851,95.0,0.404255319149,0.0,0.0,454.217410716,brandy,alcohol,453.0,brandy,brandy,newport
cret06,1.0,251.0,1.0,251.0,1.0,0.0,0.0,0.0,0.0,432.067332541,brandy,alcohol,431.0,brandy,brandy,newport
cret06,1.0,228.0,1.0,228.0,1.0,0.0,0.0,0.0,0.0,439.582847281,brandy,alcohol,438.0,brandy,brandy,newport
cret06,1.0,255.0,0.77743902439,255.0,0.77743902439,73.0,0.22256097561,0.0,0.0,522.453858832,brandy,alcohol,522.0,brandy,brandy,newport
cret06,1.0,380.0,1.0,380.0,1.0,0.0,0.0,0.0,0.0,569.642732153,brandy,alcohol,569.0,brandy,brandy,newport
cret06,1.0,222.0,0.6,222.0,0.6,148.0,0.4,0.0,0.0,551.806966969,brandy,alcohol,551.0,brandy,brandy,newport
cret06,1.0,358.0,1.0,358.0,1.0,0.0,0.0,0.0,0.0,584.133759798,brandy,alcohol,583.0,brandy,brandy,newport
cret06,1.0,0.0,0.0,0.0,0.0,97.0,1.0,0.0,0.0,474.574289627,newport,cigarette,474.0,brandy,brandy,newport
cret06,1.0,318.0,1.0,318.0,1.0,0.0,0.0,0.0,0.0,674.556879617,brandy,alcohol,674.0,brandy,brandy,newport
cret06,1.0,172.0,1.0,172.0,1.0,0.0,0.0,0.0,0.0,385.232805458,brandy,alcohol,385.0,brandy,brandy,newport
cret06,1.0,109.0,1.0,109.0,1.0,0.0,0.0,0.0,0.0,337.680352019,brandy,alcohol,337.0,brandy,brandy,newport
cret06,1.0,253.0,1.0,253.0,1.0,0.0,0.0,0.0,0.0,492.772834116,brandy,alcohol,492.0,brandy,brandy,newport
cret06,1.0,333.0,0.679591836735,333.0,0.679591836735,157.0,0.320408163265,0.0,0.0,675.700692815,brandy,alcohol,675.0,brandy,brandy,newport
cret06,1.0,203.0,1.0,203.0,1.0,0.0,0.0,0.0,0.0,393.068674053,brandy,alcohol,392.0,brandy,brandy,newport
cret07,3.0,781.0,0.649750415973,781.0,0.649750415973,42.0,0.0349417637271,379.0,0.3153078203,1224.52645851,marlboro,cigarette,1224.0,josecuervo,josecuervo,americanspirit
cret07,3.0,620.0,0.422343324251,620.0,0.422343324251,752.0,0.512261580381,96.0,0.0653950953678,1627.97698826,waterbottle,neutral,1627.0,josecuervo,josecuervo,americanspirit
cret07,2.0,597.0,0.785526315789,163.0,0.214473684211,597.0,0.785526315789,0.0,0.0,947.82064566,americanspirit,cigarette,944.0,americanspirit,josecuervo,americanspirit
cret07,1.0,570.0,0.720606826802,221.0,0.279393173198,0.0,0.0,570.0,0.720606826802,973.950191291,waterbottle,neutral,974.0,waterbottle,josecuervo,americanspirit
cret07,1.0,700.0,0.594732370433,277.0,0.235344095157,700.0,0.594732370433,200.0,0.16992353441,1377.38164454,americanspirit,cigarette,1377.0,americanspirit,josecuervo,americanspirit
cret07,1.0,744.0,0.692737430168,240.0,0.223463687151,744.0,0.692737430168,90.0,0.0837988826816,1231.78865172,waterbottle,neutral,1231.0,americanspirit,josecuervo,americanspirit
cret07,1.0,431.0,0.585597826087,305.0,0.414402173913,431.0,0.585597826087,0.0,0.0,900.496167475,americanspirit,cigarette,900.0,americanspirit,josecuervo,americanspirit
cret07,3.0,792.0,0.415966386555,792.0,0.415966386555,186.0,0.0976890756303,926.0,0.486344537815,1951.27236022,josecuervo,alcohol,1951.0,josecuervo,josecuervo,americanspirit
cret07,2.0,1369.0,0.457706452691,1369.0,0.457706452691,567.0,0.189568706118,1055.0,0.35272484119,3055.15117104,corona,alcohol,3055.0,corona,josecuervo,americanspirit
cret07,1.0,949.0,0.697794117647,411.0,0.302205882353,0.0,0.0,949.0,0.697794117647,1565.0366601,waterglass,neutral,1564.0,waterglass,josecuervo,americanspirit
cret07,1.0,752.0,0.552129221733,752.0,0.552129221733,610.0,0.447870778267,0.0,0.0,1386.13981746,josecuervo,alcohol,1386.0,josecuervo,josecuervo,americanspirit
cret07,1.0,344.0,0.414957780458,344.0,0.414957780458,181.0,0.218335343788,304.0,0.366706875754,849.317673238,americanspirit,cigarette,849.0,josecuervo,josecuervo,americanspirit
cret07,1.0,281.0,0.912337662338,0.0,0.0,281.0,0.912337662338,27.0,0.0876623376623,486.222139635,waterglass,neutral,485.0,americanspirit,josecuervo,americanspirit
cret07,1.0,1189.0,0.752055660974,1189.0,0.752055660974,392.0,0.247944339026,0.0,0.0,1817.44493961,josecuervo,alcohol,1756.0,josecuervo,josecuervo,americanspirit
cret07,4.0,438.0,0.541409147095,0.0,0.0,438.0,0.541409147095,371.0,0.458590852905,819.761292873,marlboro,cigarette,819.0,marlboro,josecuervo,americanspirit
cret07,3.0,775.0,1.0,775.0,1.0,0.0,0.0,0.0,0.0,775.380999019,josecuervo,alcohol,775.0,josecuervo,josecuervo,americanspirit
cret07,3.0,840.0,0.498516320475,840.0,0.498516320475,590.0,0.350148367953,255.0,0.151335311573,1714.87617298,josecuervo,alcohol,1714.0,josecuervo,josecuervo,americanspirit
cret07,2.0,859.0,0.486961451247,512.0,0.290249433107,859.0,0.486961451247,393.0,0.222789115646,1804.19910778,naturallight,alcohol,1803.0,americanspirit,josecuervo,americanspirit
cret07,1.0,579.0,0.903276131045,0.0,0.0,62.0,0.0967238689548,579.0,0.903276131045,653.887940904,americanspirit,cigarette,653.0,waterbottle,josecuervo,americanspirit
cret07,3.0,469.0,0.515384615385,469.0,0.515384615385,217.0,0.238461538462,224.0,0.246153846154,1087.83252193,josecuervo,alcohol,1087.0,josecuervo,josecuervo,americanspirit
cret07,3.0,287.0,0.389416553596,287.0,0.389416553596,49.0,0.0664857530529,401.0,0.544097693351,757.618324757,camelcrush,cigarette,757.0,josecuervo,josecuervo,americanspirit
cret07,1.0,642.0,0.309995171415,642.0,0.309995171415,1053.0,0.508450024143,376.0,0.181554804442,2137.80499509,americanspirit,cigarette,2137.0,josecuervo,josecuervo,americanspirit
cret07,1.0,730.0,0.504840940526,331.0,0.228907330567,730.0,0.504840940526,385.0,0.266251728907,1483.24423727,americanspirit,cigarette,1482.0,americanspirit,josecuervo,americanspirit
cret07,4.0,542.0,0.273461150353,542.0,0.273461150353,760.0,0.383451059536,680.0,0.343087790111,2028.83628987,newamsterdam,alcohol,2028.0,newamsterdam,josecuervo,americanspirit
cret07,3.0,1317.0,0.782996432818,365.0,0.217003567182,1317.0,0.782996432818,0.0,0.0,1875.60067975,newport,cigarette,1875.0,newport,josecuervo,americanspirit
cret07,2.0,955.0,0.498694516971,955.0,0.498694516971,728.0,0.380156657963,232.0,0.121148825065,1982.57066472,waterglass,neutral,1982.0,corona,josecuervo,americanspirit
cret07,4.0,870.0,0.524728588661,870.0,0.524728588661,417.0,0.251507840772,371.0,0.223763570567,1843.88450296,luckystrike,cigarette,1843.0,sutter,josecuervo,americanspirit
cret07,1.0,470.0,0.275498241501,468.0,0.274325908558,768.0,0.450175849941,470.0,0.275498241501,1761.87907199,waterbottle,neutral,1761.0,waterbottle,josecuervo,americanspirit
cret07,1.0,750.0,0.552282768778,750.0,0.552282768778,358.0,0.263622974963,250.0,0.184094256259,1376.58774079,josecuervo,alcohol,1376.0,josecuervo,josecuervo,americanspirit
cret07,2.0,1189.0,0.617662337662,1189.0,0.617662337662,546.0,0.283636363636,190.0,0.0987012987013,1962.06011972,americanspirit,cigarette,1961.0,smirnoff,josecuervo,americanspirit
cret07,2.0,994.0,0.537587885343,502.0,0.271498107085,994.0,0.537587885343,353.0,0.190914007572,1889.84498832,americanspirit,cigarette,1890.0,americanspirit,josecuervo,americanspirit
cret07,4.0,757.0,0.6149471974,757.0,0.6149471974,182.0,0.147847278635,292.0,0.237205523964,1251.7524889,greygoose,alcohol,1251.0,greygoose,josecuervo,americanspirit
cret07,3.0,427.0,0.620639534884,427.0,0.620639534884,0.0,0.0,261.0,0.379360465116,920.17520135,selzter,neutral,919.0,josecuervo,josecuervo,americanspirit
cret07,2.0,461.0,0.601043024772,461.0,0.601043024772,0.0,0.0,306.0,0.398956975228,957.720596955,sutter,alcohol,957.0,sutter,josecuervo,americanspirit
cret07,1.0,499.0,0.453224341508,499.0,0.453224341508,301.0,0.273387829246,301.0,0.273387829246,1121.67752013,americanspirit,cigarette,1121.0,josecuervo,josecuervo,americanspirit
cret07,4.0,580.0,0.803324099723,142.0,0.196675900277,580.0,0.803324099723,0.0,0.0,882.743044703,newport,cigarette,882.0,newport,josecuervo,americanspirit
cret07,1.0,386.0,0.223250433777,1021.0,0.590514748409,386.0,0.223250433777,322.0,0.186234817814,1766.55216985,americanspirit,cigarette,1766.0,americanspirit,josecuervo,americanspirit
cret07,4.0,698.0,0.60537727667,698.0,0.60537727667,219.0,0.189939288812,236.0,0.204683434519,1182.05225208,bacardi,alcohol,1182.0,bacardi,josecuervo,americanspirit
cret07,1.0,198.0,0.300911854103,356.0,0.54103343465,104.0,0.158054711246,198.0,0.300911854103,855.929114344,americanspirit,cigarette,855.0,waterbottle,josecuervo,americanspirit
cret07,4.0,1027.0,0.594328703704,1027.0,0.594328703704,502.0,0.290509259259,199.0,0.115162037037,1764.09992306,luckystrike,cigarette,1763.0,jackdaniels,josecuervo,americanspirit
cret07,1.0,653.0,0.882432432432,653.0,0.882432432432,0.0,0.0,87.0,0.117567567568,752.48293134,selzter,neutral,751.0,josecuervo,josecuervo,americanspirit
cret07,2.0,570.0,1.0,570.0,1.0,0.0,0.0,0.0,0.0,743.534861544,jackdaniels,alcohol,742.0,jackdaniels,josecuervo,americanspirit
cret07,2.0,434.0,0.341463414634,736.0,0.579071597168,434.0,0.341463414634,101.0,0.0794649881983,1320.96027218,selzter,neutral,1320.0,americanspirit,josecuervo,americanspirit
cret07,2.0,662.0,0.580192813322,662.0,0.580192813322,122.0,0.106923751096,357.0,0.312883435583,1321.10552661,americanspirit,cigarette,1320.0,corona,josecuervo,americanspirit
cret07,2.0,402.0,0.559888579387,316.0,0.440111420613,402.0,0.559888579387,0.0,0.0,888.856520834,naturallight,alcohol,888.0,americanspirit,josecuervo,americanspirit
cret07,1.0,669.0,0.91393442623,669.0,0.91393442623,63.0,0.0860655737705,0.0,0.0,741.567545123,americanspirit,cigarette,741.0,josecuervo,josecuervo,americanspirit
cret07,3.0,434.0,0.434869739479,434.0,0.434869739479,195.0,0.195390781563,369.0,0.369739478958,1251.38472496,waterglass,neutral,1251.0,josecuervo,josecuervo,americanspirit
cret07,4.0,204.0,0.459459459459,0.0,0.0,204.0,0.459459459459,240.0,0.540540540541,639.340619684,newport,cigarette,636.0,newport,josecuervo,americanspirit
cret07,1.0,995.0,0.727339181287,995.0,0.727339181287,373.0,0.272660818713,0.0,0.0,1666.59379222,josecuervo,alcohol,1666.0,josecuervo,josecuervo,americanspirit
cret07,4.0,735.0,0.444108761329,735.0,0.444108761329,246.0,0.148640483384,674.0,0.407250755287,1854.17437583,selzter,neutral,1853.0,heineken,josecuervo,americanspirit
cret07,3.0,419.0,0.25210589651,851.0,0.512033694344,392.0,0.235860409146,419.0,0.25210589651,1851.50922855,josecuervo,alcohol,1851.0,waterbottle,josecuervo,americanspirit
cret07,1.0,877.0,0.424903100775,1024.0,0.496124031008,877.0,0.424903100775,163.0,0.0789728682171,2111.643134,americanspirit,cigarette,2111.0,americanspirit,josecuervo,americanspirit
cret07,1.0,435.0,0.272556390977,435.0,0.272556390977,409.0,0.25626566416,752.0,0.471177944862,1796.7224061,josecuervo,alcohol,1796.0,josecuervo,josecuervo,americanspirit
cret07,1.0,306.0,0.276422764228,415.0,0.374887082204,306.0,0.276422764228,386.0,0.348690153568,1276.09437597,americanspirit,cigarette,1276.0,americanspirit,josecuervo,americanspirit
cret07,3.0,319.0,0.433423913043,222.0,0.301630434783,319.0,0.433423913043,195.0,0.264945652174,1102.63986687,waterglass,neutral,1102.0,newport,josecuervo,americanspirit
cret07,1.0,214.0,0.154178674352,419.0,0.301873198847,755.0,0.543948126801,214.0,0.154178674352,1575.46072323,americanspirit,cigarette,1575.0,waterbottle,josecuervo,americanspirit
cret07,1.0,411.0,0.387370405278,255.0,0.240339302545,411.0,0.387370405278,395.0,0.372290292177,1312.38346427,americanspirit,cigarette,1312.0,americanspirit,josecuervo,americanspirit
cret07,3.0,625.0,0.531462585034,625.0,0.531462585034,435.0,0.369897959184,116.0,0.0986394557823,1383.29582513,josecuervo,alcohol,1382.0,josecuervo,josecuervo,americanspirit
cret07,1.0,783.0,0.751439539347,783.0,0.751439539347,259.0,0.248560460653,0.0,0.0,1213.40726447,josecuervo,alcohol,1213.0,josecuervo,josecuervo,americanspirit
cret07,1.0,548.0,0.352865421764,356.0,0.229233741146,548.0,0.352865421764,649.0,0.41790083709,1592.60930196,americanspirit,cigarette,1592.0,americanspirit,josecuervo,americanspirit
cret07,1.0,502.0,0.449016100179,502.0,0.449016100179,377.0,0.337209302326,239.0,0.213774597496,1148.62410231,americanspirit,cigarette,1148.0,josecuervo,josecuervo,americanspirit
cret07,1.0,218.0,0.251732101617,289.0,0.333718244804,218.0,0.251732101617,359.0,0.41454965358,888.117462183,josecuervo,alcohol,887.0,americanspirit,josecuervo,americanspirit
cret07,1.0,924.0,1.0,924.0,1.0,0.0,0.0,0.0,0.0,1074.06459352,josecuervo,alcohol,1074.0,josecuervo,josecuervo,americanspirit
cret07,3.0,300.0,0.560747663551,0.0,0.0,300.0,0.560747663551,235.0,0.439252336449,714.038129372,newport,cigarette,703.0,newport,josecuervo,americanspirit
cret07,2.0,228.0,0.296103896104,345.0,0.448051948052,197.0,0.255844155844,228.0,0.296103896104,965.895885127,americanspirit,cigarette,965.0,waterbottle,josecuervo,americanspirit
cret07,1.0,557.0,0.419427710843,557.0,0.419427710843,771.0,0.580572289157,0.0,0.0,1352.17340491,americanspirit,cigarette,1352.0,josecuervo,josecuervo,americanspirit
cret07,4.0,232.0,0.361934477379,280.0,0.436817472699,232.0,0.361934477379,129.0,0.201248049922,803.028441649,waterglass,neutral,803.0,newport,josecuervo,americanspirit
cret07,2.0,444.0,0.443113772455,444.0,0.443113772455,344.0,0.343313373253,214.0,0.213572854291,1374.37676838,corona,alcohol,1373.0,corona,josecuervo,americanspirit
cret07,1.0,400.0,0.444444444444,400.0,0.444444444444,168.0,0.186666666667,332.0,0.368888888889,973.871907757,americanspirit,cigarette,973.0,josecuervo,josecuervo,americanspirit
cret07,2.0,638.0,0.557205240175,638.0,0.557205240175,145.0,0.126637554585,362.0,0.31615720524,1164.68553777,americanspirit,cigarette,1164.0,bacardi,josecuervo,americanspirit
cret07,4.0,691.0,1.0,691.0,1.0,0.0,0.0,0.0,0.0,691.295177138,greygoose,alcohol,690.0,greygoose,josecuervo,americanspirit
cret07,1.0,789.0,0.537832310838,478.0,0.325835037491,789.0,0.537832310838,200.0,0.13633265167,1502.60342241,americanspirit,cigarette,1502.0,americanspirit,josecuervo,americanspirit
cret07,4.0,243.0,0.18,243.0,0.18,258.0,0.191111111111,849.0,0.628888888889,1379.24757498,waterglass,neutral,1378.0,brandy,josecuervo,americanspirit
cret07,1.0,391.0,0.491206030151,196.0,0.246231155779,391.0,0.491206030151,209.0,0.26256281407,1041.31556692,americanspirit,cigarette,1041.0,americanspirit,josecuervo,americanspirit
cret07,4.0,553.0,0.659904534606,553.0,0.659904534606,94.0,0.112171837709,191.0,0.227923627685,959.972674685,newport,cigarette,959.0,skyy,josecuervo,americanspirit
cret07,1.0,373.0,0.32406602954,417.0,0.362293657689,361.0,0.313640312772,373.0,0.32406602954,1180.15865609,waterglass,neutral,1179.0,waterglass,josecuervo,americanspirit
cret07,3.0,288.0,0.266666666667,792.0,0.733333333333,288.0,0.266666666667,0.0,0.0,1268.86333107,marlboro,cigarette,1268.0,marlboro,josecuervo,americanspirit
cret07,3.0,242.0,0.179126572909,597.0,0.441894892672,512.0,0.378978534419,242.0,0.179126572909,1380.94829179,josecuervo,alcohol,1380.0,waterbottle,josecuervo,americanspirit
cret07,1.0,580.0,0.574257425743,430.0,0.425742574257,580.0,0.574257425743,0.0,0.0,1180.53041915,americanspirit,cigarette,1179.0,americanspirit,josecuervo,americanspirit
cret07,2.0,472.0,0.537585421412,472.0,0.537585421412,215.0,0.244874715262,191.0,0.217539863326,1054.27645745,americanspirit,cigarette,1054.0,brandy,josecuervo,americanspirit
cret07,1.0,690.0,0.645463049579,690.0,0.645463049579,0.0,0.0,379.0,0.354536950421,1253.79844603,waterglass,neutral,1253.0,josecuervo,josecuervo,americanspirit
cret07,2.0,792.0,1.0,792.0,1.0,0.0,0.0,0.0,0.0,941.045029611,sutter,alcohol,941.0,sutter,josecuervo,americanspirit
cret07,1.0,241.0,0.220091324201,377.0,0.344292237443,241.0,0.220091324201,477.0,0.435616438356,1117.3556205,selzter,neutral,1117.0,americanspirit,josecuervo,americanspirit
cret07,3.0,341.0,0.243223965763,341.0,0.243223965763,289.0,0.206134094151,772.0,0.550641940086,1446.15908491,josecuervo,alcohol,1446.0,josecuervo,josecuervo,americanspirit
cret07,3.0,572.0,0.270449172577,572.0,0.270449172577,902.0,0.426477541371,641.0,0.303073286052,2170.84109897,josecuervo,alcohol,2171.0,josecuervo,josecuervo,americanspirit
cret07,1.0,336.0,0.30134529148,336.0,0.30134529148,572.0,0.513004484305,207.0,0.185650224215,1143.39766357,americanspirit,cigarette,1142.0,josecuervo,josecuervo,americanspirit
cret07,2.0,508.0,0.736231884058,508.0,0.736231884058,0.0,0.0,182.0,0.263768115942,714.19793674,waterglass,neutral,714.0,bacardi,josecuervo,americanspirit
cret07,1.0,305.0,0.302579365079,604.0,0.599206349206,99.0,0.0982142857143,305.0,0.302579365079,1032.2958823,americanspirit,cigarette,1032.0,waterbottle,josecuervo,americanspirit
cret07,2.0,0.0,0.0,231.0,0.403141361257,342.0,0.596858638743,0.0,0.0,596.34728981,captainmorgan,alcohol,596.0,waterbottle,josecuervo,americanspirit
cret07,3.0,0.0,0.0,0.0,0.0,547.0,1.0,0.0,0.0,546.416511375,camelcrush,cigarette,546.0,waterbottle,josecuervo,americanspirit
cret07,3.0,533.0,0.337341772152,808.0,0.511392405063,239.0,0.151265822785,533.0,0.337341772152,1645.7956416,waterbottle,neutral,1645.0,waterbottle,josecuervo,americanspirit
cret07,1.0,229.0,0.443798449612,266.0,0.515503875969,21.0,0.0406976744186,229.0,0.443798449612,533.479788098,americanspirit,cigarette,533.0,waterglass,josecuervo,americanspirit
cret07,3.0,491.0,0.24068627451,491.0,0.24068627451,1345.0,0.65931372549,204.0,0.1,2073.55421017,luckystrike,cigarette,2073.0,josecuervo,josecuervo,americanspirit
cret07,1.0,711.0,0.619337979094,248.0,0.216027874564,711.0,0.619337979094,189.0,0.164634146341,1270.94902272,americanspirit,cigarette,1270.0,americanspirit,josecuervo,americanspirit
cret07,2.0,421.0,0.758558558559,421.0,0.758558558559,134.0,0.241441441441,0.0,0.0,727.492793766,sutter,alcohol,727.0,sutter,josecuervo,americanspirit
cret07,1.0,535.0,0.400149588631,526.0,0.393418100224,276.0,0.206432311144,535.0,0.400149588631,1372.68262111,waterglass,neutral,1372.0,waterglass,josecuervo,americanspirit
cret07,3.0,0.0,0.0,0.0,0.0,315.0,1.0,0.0,0.0,893.206410365,newport,cigarette,892.0,josecuervo,josecuervo,americanspirit
cret07,4.0,1659.0,0.329558998808,2373.0,0.471394517282,1659.0,0.329558998808,1002.0,0.199046483909,5167.52853094,naturallight,alcohol,5166.0,marlboro,josecuervo,americanspirit
cret07,1.0,407.0,0.594160583942,73.0,0.106569343066,205.0,0.299270072993,407.0,0.594160583942,708.648277322,josecuervo,alcohol,708.0,waterbottle,josecuervo,americanspirit
cret07,2.0,527.0,0.444350758853,289.0,0.243676222597,527.0,0.444350758853,370.0,0.31197301855,1224.69045345,waterbottle,neutral,1224.0,americanspirit,josecuervo,americanspirit
cret07,1.0,271.0,0.317330210773,344.0,0.40281030445,239.0,0.279859484778,271.0,0.317330210773,1046.39117732,waterglass,neutral,1046.0,waterglass,josecuervo,americanspirit
cret07,3.0,111.0,0.175911251981,202.0,0.320126782884,111.0,0.175911251981,318.0,0.503961965135,722.033894501,newport,cigarette,721.0,newport,josecuervo,americanspirit
cret07,1.0,509.0,0.501477832512,509.0,0.501477832512,286.0,0.281773399015,220.0,0.216748768473,1037.12601592,americanspirit,cigarette,1036.0,josecuervo,josecuervo,americanspirit
cret07,3.0,678.0,0.479490806223,678.0,0.479490806223,468.0,0.330975954738,268.0,0.189533239038,1632.667741,josecuervo,alcohol,1632.0,josecuervo,josecuervo,americanspirit
cret07,2.0,295.0,0.416078984485,30.0,0.0423131170663,384.0,0.541607898449,295.0,0.416078984485,734.258327157,newamsterdam,alcohol,734.0,waterbottle,josecuervo,americanspirit
cret07,1.0,630.0,0.544041450777,630.0,0.544041450777,310.0,0.267702936097,218.0,0.188255613126,1201.61992744,josecuervo,alcohol,1201.0,josecuervo,josecuervo,americanspirit
cret07,2.0,316.0,0.391089108911,316.0,0.391089108911,344.0,0.425742574257,148.0,0.183168316832,839.765437746,selzter,neutral,839.0,brandy,josecuervo,americanspirit
cret07,3.0,659.0,0.521360759494,659.0,0.521360759494,314.0,0.248417721519,291.0,0.230221518987,1312.07585534,josecuervo,alcohol,1312.0,josecuervo,josecuervo,americanspirit
cret07,3.0,215.0,0.169025157233,947.0,0.744496855346,110.0,0.0864779874214,215.0,0.169025157233,1317.32898482,luckystrike,cigarette,1317.0,waterbottle,josecuervo,americanspirit
cret07,1.0,537.0,0.454314720812,317.0,0.268189509306,537.0,0.454314720812,328.0,0.277495769882,1227.59838073,selzter,neutral,1227.0,americanspirit,josecuervo,americanspirit
cret07,2.0,0.0,0.0,350.0,0.570962479608,263.0,0.429037520392,0.0,0.0,859.788259958,smirnoff,alcohol,859.0,waterbottle,josecuervo,americanspirit
cret07,3.0,1249.0,0.616181549087,260.0,0.128268376912,1249.0,0.616181549087,518.0,0.255550074001,2179.01483317,newport,cigarette,2179.0,newport,josecuervo,americanspirit
cret07,1.0,444.0,0.389132340053,444.0,0.389132340053,364.0,0.319018404908,333.0,0.291849255039,1421.72892411,americanspirit,cigarette,1421.0,josecuervo,josecuervo,americanspirit
cret07,2.0,380.0,0.629139072848,380.0,0.629139072848,224.0,0.370860927152,0.0,0.0,775.475467463,americanspirit,cigarette,774.0,brandy,josecuervo,americanspirit
cret07,1.0,354.0,0.846889952153,64.0,0.153110047847,0.0,0.0,354.0,0.846889952153,648.467039366,josecuervo,alcohol,647.0,waterbottle,josecuervo,americanspirit
cret07,1.0,682.0,0.639175257732,682.0,0.639175257732,0.0,0.0,385.0,0.360824742268,1078.59119497,josecuervo,alcohol,1078.0,josecuervo,josecuervo,americanspirit
cret07,2.0,387.0,0.574183976261,387.0,0.574183976261,0.0,0.0,287.0,0.425816023739,690.085647883,jimbeam,alcohol,689.0,jimbeam,josecuervo,americanspirit
cret07,1.0,707.0,0.894936708861,0.0,0.0,707.0,0.894936708861,83.0,0.105063291139,811.462394737,selzter,neutral,810.0,americanspirit,josecuervo,americanspirit
cret07,1.0,237.0,0.400337837838,355.0,0.599662162162,0.0,0.0,237.0,0.400337837838,607.793439285,waterbottle,neutral,607.0,waterbottle,josecuervo,americanspirit
cret07,1.0,598.0,0.551152073733,206.0,0.189861751152,598.0,0.551152073733,281.0,0.258986175115,1135.62432678,waterglass,neutral,1135.0,americanspirit,josecuervo,americanspirit
cret07,4.0,173.0,0.344621513944,117.0,0.233067729084,173.0,0.344621513944,212.0,0.422310756972,665.125230996,naturallight,alcohol,665.0,newport,josecuervo,americanspirit
cret07,3.0,369.0,0.380020597322,361.0,0.371781668383,369.0,0.380020597322,241.0,0.248197734295,1003.56722748,newport,cigarette,1003.0,newport,josecuervo,americanspirit
cret07,1.0,553.0,0.547524752475,553.0,0.547524752475,259.0,0.256435643564,198.0,0.19603960396,1053.53944759,waterglass,neutral,1053.0,josecuervo,josecuervo,americanspirit
cret07,4.0,356.0,0.262924667651,351.0,0.259231905465,356.0,0.262924667651,647.0,0.477843426883,1395.41407189,marlboro,cigarette,1395.0,marlboro,josecuervo,americanspirit
cret07,1.0,458.0,0.376644736842,258.0,0.212171052632,458.0,0.376644736842,500.0,0.411184210526,1239.68119172,josecuervo,alcohol,1239.0,americanspirit,josecuervo,americanspirit
cret07,4.0,794.0,0.284485847367,1365.0,0.489072017198,632.0,0.226442135435,794.0,0.284485847367,2834.64334576,waterbottle,neutral,2834.0,waterbottle,josecuervo,americanspirit
cret07,3.0,442.0,0.330838323353,442.0,0.330838323353,348.0,0.260479041916,546.0,0.408682634731,1391.89275671,selzter,neutral,1392.0,josecuervo,josecuervo,americanspirit
cret07,2.0,531.0,0.379014989293,531.0,0.379014989293,675.0,0.481798715203,195.0,0.139186295503,1452.33487001,bacardi,alcohol,1452.0,bacardi,josecuervo,americanspirit
cret07,1.0,413.0,0.365810451727,365.0,0.323294951284,413.0,0.365810451727,351.0,0.310894596988,1170.29060063,waterglass,neutral,1169.0,americanspirit,josecuervo,americanspirit
cret08,2.0,1276.0,0.658410732714,382.0,0.197110423117,1276.0,0.658410732714,280.0,0.144478844169,2150.91964826,newport,cigarette,2149.0,newport,naturallight,newport
cret08,2.0,863.0,0.710288065844,0.0,0.0,863.0,0.710288065844,352.0,0.289711934156,1409.52822142,newport,cigarette,1409.0,newport,naturallight,newport
cret08,3.0,945.0,0.426636568849,862.0,0.389164785553,945.0,0.426636568849,408.0,0.184198645598,2441.2668029,marlboro,cigarette,2441.0,marlboro,naturallight,newport
cret08,1.0,366.0,0.387301587302,416.0,0.440211640212,366.0,0.387301587302,163.0,0.172486772487,1120.09612053,naturallight,alcohol,1119.0,newport,naturallight,newport
cret08,1.0,402.0,0.839248434238,77.0,0.160751565762,402.0,0.839248434238,0.0,0.0,688.146770994,naturallight,alcohol,688.0,newport,naturallight,newport
cret08,1.0,389.0,1.0,0.0,0.0,389.0,1.0,0.0,0.0,567.146589939,newport,cigarette,566.0,newport,naturallight,newport
cret08,1.0,320.0,0.566371681416,245.0,0.433628318584,320.0,0.566371681416,0.0,0.0,833.282244528,newport,cigarette,832.0,newport,naturallight,newport
cret08,1.0,265.0,0.466549295775,303.0,0.533450704225,265.0,0.466549295775,0.0,0.0,841.028341768,naturallight,alcohol,840.0,newport,naturallight,newport
cret08,2.0,519.0,0.75,173.0,0.25,519.0,0.75,0.0,0.0,877.83018762,newport,cigarette,877.0,newport,naturallight,newport
cret08,1.0,414.0,0.544736842105,167.0,0.219736842105,414.0,0.544736842105,179.0,0.235526315789,1090.49197213,selzter,neutral,1089.0,newport,naturallight,newport
cret08,1.0,203.0,0.307575757576,282.0,0.427272727273,203.0,0.307575757576,175.0,0.265151515152,831.422743155,naturallight,alcohol,831.0,newport,naturallight,newport
cret08,3.0,475.0,0.584975369458,262.0,0.322660098522,475.0,0.584975369458,75.0,0.0923645320197,1006.28906783,marlboro,cigarette,1006.0,marlboro,naturallight,newport
cret08,1.0,701.0,1.0,0.0,0.0,701.0,1.0,0.0,0.0,915.24136826,newport,cigarette,914.0,newport,naturallight,newport
cret08,4.0,637.0,0.696174863388,278.0,0.303825136612,637.0,0.696174863388,0.0,0.0,1109.64672829,captainmorgan,alcohol,1109.0,camelcrush,naturallight,newport
cret08,1.0,772.0,0.810924369748,180.0,0.189075630252,772.0,0.810924369748,0.0,0.0,1147.95210455,newport,cigarette,1147.0,newport,naturallight,newport
cret08,2.0,370.0,0.694183864916,163.0,0.305816135084,370.0,0.694183864916,0.0,0.0,543.421297532,newport,cigarette,543.0,newport,naturallight,newport
cret08,4.0,524.0,1.0,0.0,0.0,524.0,1.0,0.0,0.0,717.321413294,camelcrush,cigarette,716.0,camelcrush,naturallight,newport
cret08,1.0,269.0,0.417701863354,0.0,0.0,269.0,0.417701863354,375.0,0.582298136646,678.08081761,waterglass,neutral,677.0,newport,naturallight,newport
cret08,1.0,298.0,1.0,0.0,0.0,298.0,1.0,0.0,0.0,652.813019786,newport,cigarette,592.0,newport,naturallight,newport
cret08,1.0,458.0,1.0,0.0,0.0,458.0,1.0,0.0,0.0,668.408604917,newport,cigarette,668.0,newport,naturallight,newport
cret08,4.0,306.0,0.608349900596,0.0,0.0,306.0,0.608349900596,197.0,0.391650099404,724.24836238,waterbottle,neutral,724.0,marlboro,naturallight,newport
cret08,3.0,351.0,0.370644139388,242.0,0.255543822598,351.0,0.370644139388,354.0,0.373812038015,1123.7350186,naturallight,alcohol,1123.0,camelcrush,naturallight,newport
cret08,1.0,343.0,0.694331983806,151.0,0.305668016194,343.0,0.694331983806,0.0,0.0,666.236226697,newport,cigarette,666.0,newport,naturallight,newport
cret08,3.0,236.0,0.416961130742,0.0,0.0,236.0,0.416961130742,330.0,0.583038869258,768.559702546,waterglass,neutral,768.0,camelcrush,naturallight,newport
cret08,1.0,486.0,0.788961038961,0.0,0.0,486.0,0.788961038961,130.0,0.211038961039,804.733787561,newport,cigarette,804.0,newport,naturallight,newport
cret08,2.0,247.0,0.673024523161,120.0,0.326975476839,247.0,0.673024523161,0.0,0.0,546.273986546,bacardi,alcohol,546.0,newport,naturallight,newport
cret08,1.0,339.0,0.425879396985,0.0,0.0,339.0,0.425879396985,457.0,0.574120603015,804.322962328,newport,cigarette,803.0,newport,naturallight,newport
cret08,3.0,771.0,1.0,0.0,0.0,771.0,1.0,0.0,0.0,926.54735722,americanspirit,cigarette,926.0,americanspirit,naturallight,newport
cret08,1.0,348.0,0.606271777003,226.0,0.393728222997,348.0,0.606271777003,0.0,0.0,760.283987676,newport,cigarette,759.0,newport,naturallight,newport
cret08,1.0,506.0,1.0,0.0,0.0,506.0,1.0,0.0,0.0,705.310793116,newport,cigarette,705.0,newport,naturallight,newport
cret08,4.0,454.0,0.95178197065,0.0,0.0,454.0,0.95178197065,23.0,0.0482180293501,664.828442708,selzter,neutral,664.0,luckystrike,naturallight,newport
cret08,2.0,669.0,0.647001934236,365.0,0.352998065764,669.0,0.647001934236,0.0,0.0,1231.65562508,newport,cigarette,1231.0,newport,naturallight,newport
cret08,3.0,427.0,0.755752212389,0.0,0.0,427.0,0.755752212389,138.0,0.244247787611,861.558284805,selzter,neutral,861.0,marlboro,naturallight,newport
cret08,1.0,347.0,0.766004415011,106.0,0.233995584989,347.0,0.766004415011,0.0,0.0,672.35181197,newport,cigarette,671.0,newport,naturallight,newport
cret08,2.0,365.0,0.469151670951,413.0,0.530848329049,365.0,0.469151670951,0.0,0.0,785.645752776,newport,cigarette,784.0,newport,naturallight,newport
cret08,3.0,532.0,0.804841149773,129.0,0.195158850227,532.0,0.804841149773,0.0,0.0,837.228664351,camelcrush,cigarette,836.0,camelcrush,naturallight,newport
cret08,3.0,194.0,0.387225548902,307.0,0.612774451098,194.0,0.387225548902,0.0,0.0,693.699388363,americanspirit,cigarette,693.0,americanspirit,naturallight,newport
cret08,1.0,441.0,0.75,0.0,0.0,441.0,0.75,147.0,0.25,784.335767529,newport,cigarette,784.0,newport,naturallight,newport
cret08,1.0,609.0,0.824086603518,130.0,0.175913396482,609.0,0.824086603518,0.0,0.0,1123.16084288,naturallight,alcohol,1122.0,newport,naturallight,newport
cret08,1.0,557.0,1.0,0.0,0.0,557.0,1.0,0.0,0.0,873.856449894,newport,cigarette,776.0,newport,naturallight,newport
cret08,1.0,272.0,0.561983471074,212.0,0.438016528926,272.0,0.561983471074,0.0,0.0,706.204436397,naturallight,alcohol,705.0,newport,naturallight,newport
cret08,1.0,540.0,1.0,0.0,0.0,540.0,1.0,0.0,0.0,764.65777446,newport,cigarette,764.0,newport,naturallight,newport
cret08,1.0,576.0,1.0,0.0,0.0,576.0,1.0,0.0,0.0,932.836750806,newport,cigarette,932.0,newport,naturallight,newport
cret08,4.0,318.0,1.0,0.0,0.0,318.0,1.0,0.0,0.0,549.097189223,marlboro,cigarette,549.0,marlboro,naturallight,newport
cret08,3.0,380.0,0.715630885122,0.0,0.0,380.0,0.715630885122,151.0,0.284369114878,695.83184324,luckystrike,cigarette,695.0,luckystrike,naturallight,newport
cret08,2.0,558.0,0.628378378378,0.0,0.0,558.0,0.628378378378,330.0,0.371621621622,1096.9067573,newport,cigarette,1096.0,newport,naturallight,newport
cret08,1.0,174.0,1.0,0.0,0.0,174.0,1.0,0.0,0.0,494.350040588,newport,cigarette,493.0,newport,naturallight,newport
cret08,2.0,371.0,1.0,0.0,0.0,371.0,1.0,0.0,0.0,549.116874899,newport,cigarette,548.0,newport,naturallight,newport
cret08,4.0,480.0,1.0,0.0,0.0,480.0,1.0,0.0,0.0,671.949611771,americanspirit,cigarette,671.0,americanspirit,naturallight,newport
cret08,1.0,409.0,1.0,0.0,0.0,409.0,1.0,0.0,0.0,644.377914717,newport,cigarette,644.0,newport,naturallight,newport
cret08,4.0,437.0,0.687106918239,199.0,0.312893081761,437.0,0.687106918239,0.0,0.0,804.41755677,luckystrike,cigarette,803.0,luckystrike,naturallight,newport
cret08,1.0,328.0,0.987951807229,4.0,0.0120481927711,328.0,0.987951807229,0.0,0.0,541.736558104,newport,cigarette,541.0,newport,naturallight,newport
cret08,3.0,389.0,0.653781512605,0.0,0.0,389.0,0.653781512605,206.0,0.346218487395,768.694196331,luckystrike,cigarette,768.0,luckystrike,naturallight,newport
cret08,3.0,368.0,0.698292220114,159.0,0.301707779886,368.0,0.698292220114,0.0,0.0,785.016849134,camelcrush,cigarette,785.0,camelcrush,naturallight,newport
cret08,4.0,521.0,1.0,0.0,0.0,521.0,1.0,0.0,0.0,749.910143715,marlboro,cigarette,749.0,marlboro,naturallight,newport
cret08,1.0,433.0,1.0,0.0,0.0,433.0,1.0,0.0,0.0,646.374690652,newport,cigarette,646.0,newport,naturallight,newport
cret08,1.0,460.0,1.0,0.0,0.0,460.0,1.0,0.0,0.0,727.11163522,newport,cigarette,726.0,newport,naturallight,newport
cret08,2.0,569.0,1.0,0.0,0.0,569.0,1.0,0.0,0.0,830.123290205,newport,cigarette,829.0,newport,naturallight,newport
cret08,2.0,460.0,0.723270440252,176.0,0.276729559748,460.0,0.723270440252,0.0,0.0,805.879468691,newport,cigarette,806.0,newport,naturallight,newport
cret08,2.0,281.0,0.227162489895,780.0,0.630557801132,281.0,0.227162489895,176.0,0.142279708973,1418.25178056,waterbottle,neutral,1417.0,newport,naturallight,newport
cret08,1.0,522.0,0.628158844765,309.0,0.371841155235,522.0,0.628158844765,0.0,0.0,1003.39017357,newport,cigarette,1002.0,newport,naturallight,newport
cret08,1.0,1019.0,0.850584307179,0.0,0.0,1019.0,0.850584307179,179.0,0.149415692821,1383.83113631,newport,cigarette,1383.0,newport,naturallight,newport
cret08,1.0,390.0,0.670103092784,192.0,0.329896907216,390.0,0.670103092784,0.0,0.0,786.721274238,newport,cigarette,786.0,newport,naturallight,newport
cret08,1.0,395.0,0.961070559611,16.0,0.0389294403893,395.0,0.961070559611,0.0,0.0,625.768537224,naturallight,alcohol,624.0,newport,naturallight,newport
cret08,3.0,751.0,0.903730445247,0.0,0.0,751.0,0.903730445247,80.0,0.0962695547533,1050.69425562,selzter,neutral,1050.0,camelcrush,naturallight,newport
cret08,4.0,871.0,0.563025210084,676.0,0.436974789916,871.0,0.563025210084,0.0,0.0,1800.51458647,camelcrush,cigarette,1800.0,camelcrush,naturallight,newport
cret08,2.0,519.0,0.516932270916,485.0,0.483067729084,519.0,0.516932270916,0.0,0.0,1524.48457884,newport,cigarette,1524.0,newport,naturallight,newport
cret08,3.0,513.0,0.387755102041,370.0,0.279667422525,513.0,0.387755102041,440.0,0.332577475435,1524.24025404,americanspirit,cigarette,1523.0,americanspirit,naturallight,newport
cret08,1.0,693.0,0.629427792916,408.0,0.370572207084,693.0,0.629427792916,0.0,0.0,1278.69073721,newport,cigarette,1278.0,newport,naturallight,newport
cret08,1.0,0.0,0.0,367.0,0.526542324247,0.0,0.0,330.0,0.473457675753,1218.74476773,waterbottle,neutral,970.0,newport,naturallight,newport
cret08,1.0,324.0,0.317025440313,698.0,0.682974559687,324.0,0.317025440313,0.0,0.0,1237.46164828,naturallight,alcohol,1237.0,newport,naturallight,newport
cret08,3.0,380.0,0.36398467433,162.0,0.155172413793,380.0,0.36398467433,502.0,0.480842911877,1404.03894783,selzter,neutral,1404.0,marlboro,naturallight,newport
cret08,3.0,795.0,0.763688760807,246.0,0.236311239193,795.0,0.763688760807,0.0,0.0,1240.34474479,marlboro,cigarette,1239.0,marlboro,naturallight,newport
cret08,1.0,656.0,0.722466960352,252.0,0.277533039648,656.0,0.722466960352,0.0,0.0,1157.73586459,newport,cigarette,1145.0,newport,naturallight,newport
cret08,2.0,440.0,0.264741275572,497.0,0.299037304452,440.0,0.264741275572,725.0,0.436221419976,1914.20567591,newport,cigarette,1913.0,newport,naturallight,newport
cret08,2.0,499.0,0.265284423179,640.0,0.340244550771,499.0,0.265284423179,742.0,0.39447102605,2133.23528118,newport,cigarette,2133.0,newport,naturallight,newport
cret08,4.0,937.0,0.657543859649,488.0,0.342456140351,937.0,0.657543859649,0.0,0.0,1670.89660335,americanspirit,cigarette,1670.0,americanspirit,naturallight,newport
cret08,1.0,891.0,0.650364963504,479.0,0.349635036496,891.0,0.650364963504,0.0,0.0,1573.55078069,newport,cigarette,1572.0,newport,naturallight,newport
cret08,4.0,537.0,0.368312757202,415.0,0.28463648834,537.0,0.368312757202,506.0,0.347050754458,1689.66491505,newamsterdam,alcohol,1689.0,marlboro,naturallight,newport
cret08,3.0,702.0,0.567961165049,346.0,0.279935275081,702.0,0.567961165049,188.0,0.152103559871,1433.2227308,americanspirit,cigarette,1433.0,americanspirit,naturallight,newport
cret08,1.0,525.0,0.784753363229,0.0,0.0,525.0,0.784753363229,144.0,0.215246636771,831.050392111,newport,cigarette,831.0,newport,naturallight,newport
cret08,3.0,717.0,1.0,0.0,0.0,717.0,1.0,0.0,0.0,961.416037736,camelcrush,cigarette,960.0,camelcrush,naturallight,newport
cret08,1.0,664.0,0.698947368421,0.0,0.0,664.0,0.698947368421,286.0,0.301052631579,1120.34082333,newport,cigarette,1119.0,newport,naturallight,newport
cret08,1.0,1269.0,1.0,0.0,0.0,1269.0,1.0,0.0,0.0,1513.72993598,newport,cigarette,1513.0,newport,naturallight,newport
cret08,1.0,808.0,0.582972582973,578.0,0.417027417027,808.0,0.582972582973,0.0,0.0,1407.11500716,newport,cigarette,1407.0,newport,naturallight,newport
cret08,1.0,635.0,0.415032679739,434.0,0.283660130719,635.0,0.415032679739,461.0,0.301307189542,1712.9745703,newport,cigarette,1712.0,newport,naturallight,newport
cret08,3.0,909.0,0.776259607173,262.0,0.223740392827,909.0,0.776259607173,0.0,0.0,1336.03984464,camelcrush,cigarette,1336.0,camelcrush,naturallight,newport
cret08,1.0,953.0,0.681688125894,445.0,0.318311874106,953.0,0.681688125894,0.0,0.0,1710.65470251,newport,cigarette,1710.0,newport,naturallight,newport
cret08,4.0,795.0,0.60181680545,526.0,0.39818319455,795.0,0.60181680545,0.0,0.0,1511.26882769,luckystrike,cigarette,1510.0,luckystrike,naturallight,newport
cret08,1.0,454.0,0.33284457478,744.0,0.545454545455,454.0,0.33284457478,166.0,0.121700879765,1562.88523636,newport,cigarette,1562.0,newport,naturallight,newport
cret08,1.0,979.0,0.578605200946,430.0,0.254137115839,979.0,0.578605200946,283.0,0.167257683215,1870.27579746,newport,cigarette,1870.0,newport,naturallight,newport
cret08,2.0,704.0,0.569579288026,532.0,0.430420711974,704.0,0.569579288026,0.0,0.0,1419.40482074,newport,cigarette,1419.0,newport,naturallight,newport
cret08,3.0,718.0,0.483501683502,561.0,0.377777777778,718.0,0.483501683502,206.0,0.138720538721,1704.71498034,marlboro,cigarette,1704.0,marlboro,naturallight,newport
cret08,1.0,837.0,0.458128078818,484.0,0.264915161467,837.0,0.458128078818,506.0,0.276956759715,2042.61191298,newport,cigarette,2042.0,newport,naturallight,newport
cret08,3.0,570.0,0.360987967068,401.0,0.253958201393,570.0,0.360987967068,608.0,0.385053831539,1765.26659502,luckystrike,cigarette,1765.0,luckystrike,naturallight,newport
cret08,1.0,733.0,0.404302261445,595.0,0.328185328185,733.0,0.404302261445,485.0,0.26751241037,2028.19608842,newport,cigarette,2028.0,newport,naturallight,newport
cret08,2.0,1733.0,0.633175009134,1004.0,0.366824990866,1733.0,0.633175009134,0.0,0.0,2970.89430962,newport,cigarette,2970.0,newport,naturallight,newport
