sub_id,fast_or_slow,med_rt,trial_type,selected_item,looked_at_item,timepoint,nr_trials,nr_trials_used_for_likelihood,mean_fix_likelihood
1.0,slow,1469.65162739,3.0,alcohol,alcohol,857.0,4.0,3.0,0.75
1.0,slow,1469.65162739,3.0,alcohol,cigarette,857.0,4.0,1.0,0.25
1.0,slow,1469.65162739,3.0,alcohol,neutral,857.0,4.0,0.0,0.0
2.0,slow,680.538615854,3.0,alcohol,alcohol,857.0,7.0,5.0,0.714285714286
2.0,slow,680.538615854,3.0,alcohol,cigarette,857.0,7.0,1.0,0.142857142857
2.0,slow,680.538615854,3.0,alcohol,neutral,857.0,7.0,1.0,0.142857142857
3.0,slow,787.299907178,3.0,alcohol,alcohol,857.0,14.0,5.0,0.357142857143
3.0,slow,787.299907178,3.0,alcohol,cigarette,857.0,14.0,5.0,0.357142857143
3.0,slow,787.299907178,3.0,alcohol,neutral,857.0,14.0,4.0,0.285714285714
4.0,slow,,3.0,alcohol,alcohol,857.0,0.0,0.0,
4.0,slow,,3.0,alcohol,cigarette,857.0,0.0,0.0,
4.0,slow,,3.0,alcohol,neutral,857.0,0.0,0.0,
5.0,slow,1383.29582513,3.0,alcohol,alcohol,857.0,7.0,2.0,0.285714285714
5.0,slow,1383.29582513,3.0,alcohol,cigarette,857.0,7.0,4.0,0.571428571429
5.0,slow,1383.29582513,3.0,alcohol,neutral,857.0,7.0,1.0,0.142857142857
6.0,slow,,3.0,alcohol,alcohol,857.0,0.0,0.0,
6.0,slow,,3.0,alcohol,cigarette,857.0,0.0,0.0,
6.0,slow,,3.0,alcohol,neutral,857.0,0.0,0.0,
7.0,slow,,3.0,alcohol,alcohol,857.0,0.0,0.0,
7.0,slow,,3.0,alcohol,cigarette,857.0,0.0,0.0,
7.0,slow,,3.0,alcohol,neutral,857.0,0.0,0.0,
8.0,slow,778.393762221,3.0,alcohol,alcohol,857.0,3.0,3.0,1.0
8.0,slow,778.393762221,3.0,alcohol,cigarette,857.0,3.0,0.0,0.0
8.0,slow,778.393762221,3.0,alcohol,neutral,857.0,3.0,0.0,0.0
9.0,slow,1151.11602044,3.0,alcohol,alcohol,857.0,5.0,4.0,0.8
9.0,slow,1151.11602044,3.0,alcohol,cigarette,857.0,5.0,0.0,0.0
9.0,slow,1151.11602044,3.0,alcohol,neutral,857.0,5.0,1.0,0.2
10.0,slow,1180.74025351,3.0,alcohol,alcohol,857.0,11.0,4.0,0.363636363636
10.0,slow,1180.74025351,3.0,alcohol,cigarette,857.0,11.0,4.0,0.363636363636
10.0,slow,1180.74025351,3.0,alcohol,neutral,857.0,11.0,3.0,0.272727272727
11.0,slow,1422.55259655,3.0,alcohol,alcohol,857.0,9.0,5.0,0.555555555556
11.0,slow,1422.55259655,3.0,alcohol,cigarette,857.0,9.0,3.0,0.333333333333
11.0,slow,1422.55259655,3.0,alcohol,neutral,857.0,9.0,1.0,0.111111111111
12.0,slow,1158.10307777,3.0,alcohol,alcohol,857.0,3.0,2.0,0.666666666667
12.0,slow,1158.10307777,3.0,alcohol,cigarette,857.0,3.0,1.0,0.333333333333
12.0,slow,1158.10307777,3.0,alcohol,neutral,857.0,3.0,0.0,0.0
13.0,slow,,3.0,alcohol,alcohol,857.0,0.0,0.0,
13.0,slow,,3.0,alcohol,cigarette,857.0,0.0,0.0,
13.0,slow,,3.0,alcohol,neutral,857.0,0.0,0.0,
14.0,slow,1195.5075597,3.0,alcohol,alcohol,857.0,15.0,10.0,0.666666666667
14.0,slow,1195.5075597,3.0,alcohol,cigarette,857.0,15.0,4.0,0.266666666667
14.0,slow,1195.5075597,3.0,alcohol,neutral,857.0,15.0,1.0,0.0666666666667
15.0,slow,663.355289831,3.0,alcohol,alcohol,857.0,0.0,0.0,
15.0,slow,663.355289831,3.0,alcohol,cigarette,857.0,0.0,0.0,
15.0,slow,663.355289831,3.0,alcohol,neutral,857.0,0.0,0.0,
16.0,slow,729.838310523,3.0,alcohol,alcohol,857.0,1.0,1.0,1.0
16.0,slow,729.838310523,3.0,alcohol,cigarette,857.0,1.0,0.0,0.0
16.0,slow,729.838310523,3.0,alcohol,neutral,857.0,1.0,0.0,0.0
17.0,slow,1187.71739442,3.0,alcohol,alcohol,857.0,4.0,2.0,0.5
17.0,slow,1187.71739442,3.0,alcohol,cigarette,857.0,4.0,1.0,0.25
17.0,slow,1187.71739442,3.0,alcohol,neutral,857.0,4.0,1.0,0.25
18.0,slow,1241.08054624,3.0,alcohol,alcohol,857.0,12.0,7.0,0.583333333333
18.0,slow,1241.08054624,3.0,alcohol,cigarette,857.0,12.0,5.0,0.416666666667
18.0,slow,1241.08054624,3.0,alcohol,neutral,857.0,12.0,0.0,0.0
19.0,slow,859.46126256,3.0,alcohol,alcohol,857.0,11.0,10.0,0.909090909091
19.0,slow,859.46126256,3.0,alcohol,cigarette,857.0,11.0,1.0,0.0909090909091
19.0,slow,859.46126256,3.0,alcohol,neutral,857.0,11.0,0.0,0.0
20.0,slow,1267.13414138,3.0,alcohol,alcohol,857.0,8.0,3.0,0.375
20.0,slow,1267.13414138,3.0,alcohol,cigarette,857.0,8.0,2.0,0.25
20.0,slow,1267.13414138,3.0,alcohol,neutral,857.0,8.0,3.0,0.375
21.0,slow,1044.75984619,3.0,alcohol,alcohol,857.0,3.0,2.0,0.666666666667
21.0,slow,1044.75984619,3.0,alcohol,cigarette,857.0,3.0,1.0,0.333333333333
21.0,slow,1044.75984619,3.0,alcohol,neutral,857.0,3.0,0.0,0.0
22.0,slow,1005.7747195,3.0,alcohol,alcohol,857.0,9.0,5.0,0.555555555556
22.0,slow,1005.7747195,3.0,alcohol,cigarette,857.0,9.0,4.0,0.444444444444
22.0,slow,1005.7747195,3.0,alcohol,neutral,857.0,9.0,0.0,0.0
23.0,slow,911.198638022,3.0,alcohol,alcohol,857.0,7.0,5.0,0.714285714286
23.0,slow,911.198638022,3.0,alcohol,cigarette,857.0,7.0,1.0,0.142857142857
23.0,slow,911.198638022,3.0,alcohol,neutral,857.0,7.0,1.0,0.142857142857
24.0,slow,1009.12900423,3.0,alcohol,alcohol,857.0,7.0,2.0,0.285714285714
24.0,slow,1009.12900423,3.0,alcohol,cigarette,857.0,7.0,1.0,0.142857142857
24.0,slow,1009.12900423,3.0,alcohol,neutral,857.0,7.0,4.0,0.571428571429
25.0,slow,943.427672348,3.0,alcohol,alcohol,857.0,14.0,8.0,0.571428571429
25.0,slow,943.427672348,3.0,alcohol,cigarette,857.0,14.0,3.0,0.214285714286
25.0,slow,943.427672348,3.0,alcohol,neutral,857.0,14.0,3.0,0.214285714286
26.0,slow,508.321146828,3.0,alcohol,alcohol,857.0,0.0,0.0,
26.0,slow,508.321146828,3.0,alcohol,cigarette,857.0,0.0,0.0,
26.0,slow,508.321146828,3.0,alcohol,neutral,857.0,0.0,0.0,
27.0,slow,,3.0,alcohol,alcohol,857.0,0.0,0.0,
27.0,slow,,3.0,alcohol,cigarette,857.0,0.0,0.0,
27.0,slow,,3.0,alcohol,neutral,857.0,0.0,0.0,
28.0,slow,887.232094403,3.0,alcohol,alcohol,857.0,12.0,7.0,0.583333333333
28.0,slow,887.232094403,3.0,alcohol,cigarette,857.0,12.0,1.0,0.0833333333333
28.0,slow,887.232094403,3.0,alcohol,neutral,857.0,12.0,4.0,0.333333333333
29.0,slow,3645.47518229,3.0,alcohol,alcohol,857.0,14.0,3.0,0.214285714286
29.0,slow,3645.47518229,3.0,alcohol,cigarette,857.0,14.0,8.0,0.571428571429
29.0,slow,3645.47518229,3.0,alcohol,neutral,857.0,14.0,3.0,0.214285714286
1.0,slow,,3.0,cigarette,alcohol,857.0,0.0,0.0,
1.0,slow,,3.0,cigarette,cigarette,857.0,0.0,0.0,
1.0,slow,,3.0,cigarette,neutral,857.0,0.0,0.0,
2.0,slow,,3.0,cigarette,alcohol,857.0,0.0,0.0,
2.0,slow,,3.0,cigarette,cigarette,857.0,0.0,0.0,
2.0,slow,,3.0,cigarette,neutral,857.0,0.0,0.0,
3.0,slow,,3.0,cigarette,alcohol,857.0,0.0,0.0,
3.0,slow,,3.0,cigarette,cigarette,857.0,0.0,0.0,
3.0,slow,,3.0,cigarette,neutral,857.0,0.0,0.0,
4.0,slow,,3.0,cigarette,alcohol,857.0,0.0,0.0,
4.0,slow,,3.0,cigarette,cigarette,857.0,0.0,0.0,
4.0,slow,,3.0,cigarette,neutral,857.0,0.0,0.0,
5.0,slow,1102.63986687,3.0,cigarette,alcohol,857.0,3.0,1.0,0.333333333333
5.0,slow,1102.63986687,3.0,cigarette,cigarette,857.0,3.0,2.0,0.666666666667
5.0,slow,1102.63986687,3.0,cigarette,neutral,857.0,3.0,0.0,0.0
6.0,slow,1404.03894783,3.0,cigarette,alcohol,857.0,12.0,8.0,0.666666666667
6.0,slow,1404.03894783,3.0,cigarette,cigarette,857.0,12.0,3.0,0.25
6.0,slow,1404.03894783,3.0,cigarette,neutral,857.0,12.0,1.0,0.0833333333333
7.0,slow,823.056795771,3.0,cigarette,alcohol,857.0,7.0,3.0,0.428571428571
7.0,slow,823.056795771,3.0,cigarette,cigarette,857.0,7.0,2.0,0.285714285714
7.0,slow,823.056795771,3.0,cigarette,neutral,857.0,7.0,2.0,0.285714285714
8.0,slow,768.824638594,3.0,cigarette,alcohol,857.0,4.0,1.0,0.25
8.0,slow,768.824638594,3.0,cigarette,cigarette,857.0,4.0,2.0,0.5
8.0,slow,768.824638594,3.0,cigarette,neutral,857.0,4.0,1.0,0.25
9.0,slow,1661.60279701,3.0,cigarette,alcohol,857.0,1.0,1.0,1.0
9.0,slow,1661.60279701,3.0,cigarette,cigarette,857.0,1.0,0.0,0.0
9.0,slow,1661.60279701,3.0,cigarette,neutral,857.0,1.0,0.0,0.0
10.0,slow,912.081001489,3.0,cigarette,alcohol,857.0,1.0,1.0,1.0
10.0,slow,912.081001489,3.0,cigarette,cigarette,857.0,1.0,0.0,0.0
10.0,slow,912.081001489,3.0,cigarette,neutral,857.0,1.0,0.0,0.0
11.0,slow,1013.81575168,3.0,cigarette,alcohol,857.0,5.0,2.0,0.4
11.0,slow,1013.81575168,3.0,cigarette,cigarette,857.0,5.0,3.0,0.6
11.0,slow,1013.81575168,3.0,cigarette,neutral,857.0,5.0,0.0,0.0
12.0,slow,,3.0,cigarette,alcohol,857.0,0.0,0.0,
12.0,slow,,3.0,cigarette,cigarette,857.0,0.0,0.0,
12.0,slow,,3.0,cigarette,neutral,857.0,0.0,0.0,
13.0,slow,,3.0,cigarette,alcohol,857.0,0.0,0.0,
13.0,slow,,3.0,cigarette,cigarette,857.0,0.0,0.0,
13.0,slow,,3.0,cigarette,neutral,857.0,0.0,0.0,
14.0,slow,,3.0,cigarette,alcohol,857.0,0.0,0.0,
14.0,slow,,3.0,cigarette,cigarette,857.0,0.0,0.0,
14.0,slow,,3.0,cigarette,neutral,857.0,0.0,0.0,
15.0,slow,696.688127346,3.0,cigarette,alcohol,857.0,7.0,3.0,0.428571428571
15.0,slow,696.688127346,3.0,cigarette,cigarette,857.0,7.0,3.0,0.428571428571
15.0,slow,696.688127346,3.0,cigarette,neutral,857.0,7.0,1.0,0.142857142857
16.0,slow,891.052927618,3.0,cigarette,alcohol,857.0,3.0,2.0,0.666666666667
16.0,slow,891.052927618,3.0,cigarette,cigarette,857.0,3.0,1.0,0.333333333333
16.0,slow,891.052927618,3.0,cigarette,neutral,857.0,3.0,0.0,0.0
17.0,slow,,3.0,cigarette,alcohol,857.0,0.0,0.0,
17.0,slow,,3.0,cigarette,cigarette,857.0,0.0,0.0,
17.0,slow,,3.0,cigarette,neutral,857.0,0.0,0.0,
18.0,slow,,3.0,cigarette,alcohol,857.0,0.0,0.0,
18.0,slow,,3.0,cigarette,cigarette,857.0,0.0,0.0,
18.0,slow,,3.0,cigarette,neutral,857.0,0.0,0.0,
19.0,slow,,3.0,cigarette,alcohol,857.0,0.0,0.0,
19.0,slow,,3.0,cigarette,cigarette,857.0,0.0,0.0,
19.0,slow,,3.0,cigarette,neutral,857.0,0.0,0.0,
20.0,slow,,3.0,cigarette,alcohol,857.0,0.0,0.0,
20.0,slow,,3.0,cigarette,cigarette,857.0,0.0,0.0,
20.0,slow,,3.0,cigarette,neutral,857.0,0.0,0.0,
21.0,slow,883.453614587,3.0,cigarette,alcohol,857.0,3.0,2.0,0.666666666667
21.0,slow,883.453614587,3.0,cigarette,cigarette,857.0,3.0,1.0,0.333333333333
21.0,slow,883.453614587,3.0,cigarette,neutral,857.0,3.0,0.0,0.0
22.0,slow,831.041823341,3.0,cigarette,alcohol,857.0,1.0,1.0,1.0
22.0,slow,831.041823341,3.0,cigarette,cigarette,857.0,1.0,0.0,0.0
22.0,slow,831.041823341,3.0,cigarette,neutral,857.0,1.0,0.0,0.0
23.0,slow,544.088426544,3.0,cigarette,alcohol,857.0,1.0,1.0,1.0
23.0,slow,544.088426544,3.0,cigarette,cigarette,857.0,1.0,0.0,0.0
23.0,slow,544.088426544,3.0,cigarette,neutral,857.0,1.0,0.0,0.0
24.0,slow,1036.26772847,3.0,cigarette,alcohol,857.0,1.0,0.0,0.0
24.0,slow,1036.26772847,3.0,cigarette,cigarette,857.0,1.0,1.0,1.0
24.0,slow,1036.26772847,3.0,cigarette,neutral,857.0,1.0,0.0,0.0
25.0,slow,885.038541736,3.0,cigarette,alcohol,857.0,0.0,0.0,
25.0,slow,885.038541736,3.0,cigarette,cigarette,857.0,0.0,0.0,
25.0,slow,885.038541736,3.0,cigarette,neutral,857.0,0.0,0.0,
26.0,slow,1832.03360933,3.0,cigarette,alcohol,857.0,1.0,1.0,1.0
26.0,slow,1832.03360933,3.0,cigarette,cigarette,857.0,1.0,0.0,0.0
26.0,slow,1832.03360933,3.0,cigarette,neutral,857.0,1.0,0.0,0.0
27.0,slow,1288.99855702,3.0,cigarette,alcohol,857.0,10.0,2.0,0.2
27.0,slow,1288.99855702,3.0,cigarette,cigarette,857.0,10.0,7.0,0.7
27.0,slow,1288.99855702,3.0,cigarette,neutral,857.0,10.0,1.0,0.1
28.0,slow,840.425526938,3.0,cigarette,alcohol,857.0,0.0,0.0,
28.0,slow,840.425526938,3.0,cigarette,cigarette,857.0,0.0,0.0,
28.0,slow,840.425526938,3.0,cigarette,neutral,857.0,0.0,0.0,
29.0,slow,5893.18957287,3.0,cigarette,alcohol,857.0,1.0,0.0,0.0
29.0,slow,5893.18957287,3.0,cigarette,cigarette,857.0,1.0,1.0,1.0
29.0,slow,5893.18957287,3.0,cigarette,neutral,857.0,1.0,0.0,0.0
1.0,slow,,3.0,neutral,alcohol,857.0,0.0,0.0,
1.0,slow,,3.0,neutral,cigarette,857.0,0.0,0.0,
1.0,slow,,3.0,neutral,neutral,857.0,0.0,0.0,
2.0,slow,,3.0,neutral,alcohol,857.0,0.0,0.0,
2.0,slow,,3.0,neutral,cigarette,857.0,0.0,0.0,
2.0,slow,,3.0,neutral,neutral,857.0,0.0,0.0,
3.0,slow,692.579792404,3.0,neutral,alcohol,857.0,0.0,0.0,
3.0,slow,692.579792404,3.0,neutral,cigarette,857.0,0.0,0.0,
3.0,slow,692.579792404,3.0,neutral,neutral,857.0,0.0,0.0,
4.0,slow,,3.0,neutral,alcohol,857.0,0.0,0.0,
4.0,slow,,3.0,neutral,cigarette,857.0,0.0,0.0,
4.0,slow,,3.0,neutral,neutral,857.0,0.0,0.0,
5.0,slow,1380.94829179,3.0,neutral,alcohol,857.0,2.0,0.0,0.0
5.0,slow,1380.94829179,3.0,neutral,cigarette,857.0,2.0,2.0,1.0
5.0,slow,1380.94829179,3.0,neutral,neutral,857.0,2.0,0.0,0.0
6.0,slow,,3.0,neutral,alcohol,857.0,0.0,0.0,
6.0,slow,,3.0,neutral,cigarette,857.0,0.0,0.0,
6.0,slow,,3.0,neutral,neutral,857.0,0.0,0.0,
7.0,slow,,3.0,neutral,alcohol,857.0,0.0,0.0,
7.0,slow,,3.0,neutral,cigarette,857.0,0.0,0.0,
7.0,slow,,3.0,neutral,neutral,857.0,0.0,0.0,
8.0,slow,1203.43008721,3.0,neutral,alcohol,857.0,2.0,1.0,0.5
8.0,slow,1203.43008721,3.0,neutral,cigarette,857.0,2.0,0.0,0.0
8.0,slow,1203.43008721,3.0,neutral,neutral,857.0,2.0,1.0,0.5
9.0,slow,1030.53262993,3.0,neutral,alcohol,857.0,3.0,2.0,0.666666666667
9.0,slow,1030.53262993,3.0,neutral,cigarette,857.0,3.0,0.0,0.0
9.0,slow,1030.53262993,3.0,neutral,neutral,857.0,3.0,1.0,0.333333333333
10.0,slow,,3.0,neutral,alcohol,857.0,0.0,0.0,
10.0,slow,,3.0,neutral,cigarette,857.0,0.0,0.0,
10.0,slow,,3.0,neutral,neutral,857.0,0.0,0.0,
11.0,slow,,3.0,neutral,alcohol,857.0,0.0,0.0,
11.0,slow,,3.0,neutral,cigarette,857.0,0.0,0.0,
11.0,slow,,3.0,neutral,neutral,857.0,0.0,0.0,
12.0,slow,,3.0,neutral,alcohol,857.0,0.0,0.0,
12.0,slow,,3.0,neutral,cigarette,857.0,0.0,0.0,
12.0,slow,,3.0,neutral,neutral,857.0,0.0,0.0,
13.0,slow,1427.62257038,3.0,neutral,alcohol,857.0,14.0,6.0,0.428571428571
13.0,slow,1427.62257038,3.0,neutral,cigarette,857.0,14.0,4.0,0.285714285714
13.0,slow,1427.62257038,3.0,neutral,neutral,857.0,14.0,4.0,0.285714285714
14.0,slow,,3.0,neutral,alcohol,857.0,0.0,0.0,
14.0,slow,,3.0,neutral,cigarette,857.0,0.0,0.0,
14.0,slow,,3.0,neutral,neutral,857.0,0.0,0.0,
15.0,slow,,3.0,neutral,alcohol,857.0,0.0,0.0,
15.0,slow,,3.0,neutral,cigarette,857.0,0.0,0.0,
15.0,slow,,3.0,neutral,neutral,857.0,0.0,0.0,
16.0,slow,1032.59810243,3.0,neutral,alcohol,857.0,2.0,1.0,0.5
16.0,slow,1032.59810243,3.0,neutral,cigarette,857.0,2.0,0.0,0.0
16.0,slow,1032.59810243,3.0,neutral,neutral,857.0,2.0,1.0,0.5
17.0,slow,1892.2815946,3.0,neutral,alcohol,857.0,5.0,1.0,0.2
17.0,slow,1892.2815946,3.0,neutral,cigarette,857.0,5.0,2.0,0.4
17.0,slow,1892.2815946,3.0,neutral,neutral,857.0,5.0,2.0,0.4
18.0,slow,1500.15890886,3.0,neutral,alcohol,857.0,0.0,0.0,
18.0,slow,1500.15890886,3.0,neutral,cigarette,857.0,0.0,0.0,
18.0,slow,1500.15890886,3.0,neutral,neutral,857.0,0.0,0.0,
19.0,slow,885.640720768,3.0,neutral,alcohol,857.0,2.0,0.0,0.0
19.0,slow,885.640720768,3.0,neutral,cigarette,857.0,2.0,0.0,0.0
19.0,slow,885.640720768,3.0,neutral,neutral,857.0,2.0,2.0,1.0
20.0,slow,1362.25073411,3.0,neutral,alcohol,857.0,4.0,0.0,0.0
20.0,slow,1362.25073411,3.0,neutral,cigarette,857.0,4.0,2.0,0.5
20.0,slow,1362.25073411,3.0,neutral,neutral,857.0,4.0,2.0,0.5
21.0,slow,2000.76002231,3.0,neutral,alcohol,857.0,0.0,0.0,
21.0,slow,2000.76002231,3.0,neutral,cigarette,857.0,0.0,0.0,
21.0,slow,2000.76002231,3.0,neutral,neutral,857.0,0.0,0.0,
22.0,slow,,3.0,neutral,alcohol,857.0,0.0,0.0,
22.0,slow,,3.0,neutral,cigarette,857.0,0.0,0.0,
22.0,slow,,3.0,neutral,neutral,857.0,0.0,0.0,
23.0,slow,635.848116031,3.0,neutral,alcohol,857.0,0.0,0.0,
23.0,slow,635.848116031,3.0,neutral,cigarette,857.0,0.0,0.0,
23.0,slow,635.848116031,3.0,neutral,neutral,857.0,0.0,0.0,
24.0,slow,995.937496735,3.0,neutral,alcohol,857.0,3.0,1.0,0.333333333333
24.0,slow,995.937496735,3.0,neutral,cigarette,857.0,3.0,1.0,0.333333333333
24.0,slow,995.937496735,3.0,neutral,neutral,857.0,3.0,1.0,0.333333333333
25.0,slow,2273.99320385,3.0,neutral,alcohol,857.0,0.0,0.0,
25.0,slow,2273.99320385,3.0,neutral,cigarette,857.0,0.0,0.0,
25.0,slow,2273.99320385,3.0,neutral,neutral,857.0,0.0,0.0,
26.0,slow,806.969094157,3.0,neutral,alcohol,857.0,8.0,1.0,0.125
26.0,slow,806.969094157,3.0,neutral,cigarette,857.0,8.0,3.0,0.375
26.0,slow,806.969094157,3.0,neutral,neutral,857.0,8.0,4.0,0.5
27.0,slow,968.829140814,3.0,neutral,alcohol,857.0,4.0,0.0,0.0
27.0,slow,968.829140814,3.0,neutral,cigarette,857.0,4.0,2.0,0.5
27.0,slow,968.829140814,3.0,neutral,neutral,857.0,4.0,2.0,0.5
28.0,slow,1080.33072818,3.0,neutral,alcohol,857.0,0.0,0.0,
28.0,slow,1080.33072818,3.0,neutral,cigarette,857.0,0.0,0.0,
28.0,slow,1080.33072818,3.0,neutral,neutral,857.0,0.0,0.0,
29.0,slow,,3.0,neutral,alcohol,857.0,0.0,0.0,
29.0,slow,,3.0,neutral,cigarette,857.0,0.0,0.0,
29.0,slow,,3.0,neutral,neutral,857.0,0.0,0.0,
